submission_id,RT,age,binaryChoice,comments,education,endTime,experiment_id,focalColor,gender,languages,native_language,nrFocal,nrTotal,response1,response2,response3,sentence_shown,startDate,startTime,timeSpent,translation,trial_number,trial_type
223,NA,20,NA,,graduated_high_school,1542515243445,16,NA,female,"Punjabi, Hindi, English",Punjabi,NA,NA,NA,NA,NA,NA,Sat Nov 17 2018 20:09:11 GMT-0800 (Pacific Standard Time),1542514151904,18.19235,NA,1,nativeLang
223,23494,20,NA,,graduated_high_school,1542515243445,16,black,female,"Punjabi, Hindi, English",NA,27,49,@ਕੁਝ@ ਬਿੰਦੀਆਂ ਕਾਲੀਆਂ ਹਨ,,,NA,Sat Nov 17 2018 20:09:11 GMT-0800 (Pacific Standard Time),1542514151904,18.19235,NA,1,describePicture
223,9333,20,NA,,graduated_high_school,1542515243445,16,white,female,"Punjabi, Hindi, English",NA,6,49,@ਕੁਝ@ ਬਿੰਦੀਆਂ ਚਿੱਟੀਆਂ ਹਨ,,,NA,Sat Nov 17 2018 20:09:11 GMT-0800 (Pacific Standard Time),1542514151904,18.19235,NA,2,describePicture
223,91382,20,NA,,graduated_high_school,1542515243445,16,black,female,"Punjabi, Hindi, English",NA,0,10,@ਕੋਈ ਵੀ@ ਬਿੰਦੀ ਕਾਲੀ @ਨਹੀਂ@ ਹੈ,,,NA,Sat Nov 17 2018 20:09:11 GMT-0800 (Pacific Standard Time),1542514151904,18.19235,NA,3,describePicture
223,8144,20,NA,,graduated_high_school,1542515243445,16,black,female,"Punjabi, Hindi, English",NA,36,49,@ਜ਼ਿਆਦਾਤਰ@ ਬਿੰਦੀਆਂ ਕਾਲੀਆਂ ਹਨ,,,NA,Sat Nov 17 2018 20:09:11 GMT-0800 (Pacific Standard Time),1542514151904,18.19235,NA,4,describePicture
223,12314,20,NA,,graduated_high_school,1542515243445,16,white,female,"Punjabi, Hindi, English",NA,8,10,@ਜ਼ਿਆਦਾਤਰ@ ਬਿੰਦੀਆਂ ਚਿੱਟੀਆਂ ਹਨ,,,NA,Sat Nov 17 2018 20:09:11 GMT-0800 (Pacific Standard Time),1542514151904,18.19235,NA,5,describePicture
223,6847,20,NA,,graduated_high_school,1542515243445,16,white,female,"Punjabi, Hindi, English",NA,16,49,@ਕੁਝ@ ਬਿੰਦੀਆਂ ਚਿੱਟੀਆਂ ਹਨ,,,NA,Sat Nov 17 2018 20:09:11 GMT-0800 (Pacific Standard Time),1542514151904,18.19235,NA,6,describePicture
223,8170,20,NA,,graduated_high_school,1542515243445,16,black,female,"Punjabi, Hindi, English",NA,9,10,@ਜ਼ਿਆਦਾਤਰ@ ਬਿੰਦੀਆਂ ਕਾਲੀਆਂ ਹਨ,,,NA,Sat Nov 17 2018 20:09:11 GMT-0800 (Pacific Standard Time),1542514151904,18.19235,NA,7,describePicture
223,19790,20,NA,,graduated_high_school,1542515243445,16,black,female,"Punjabi, Hindi, English",NA,2,10,@ਕੁਝ@ ਬਿੰਦੀਆਂ ਕਾਲੀਆਂ ਹਨ,,,NA,Sat Nov 17 2018 20:09:11 GMT-0800 (Pacific Standard Time),1542514151904,18.19235,NA,8,describePicture
223,20612,20,NA,,graduated_high_school,1542515243445,16,black,female,"Punjabi, Hindi, English",NA,4,10,@ਕੁਝ@ ਬਿੰਦੀਆਂ ਕਾਲੀਆਂ ਹਨ,,,NA,Sat Nov 17 2018 20:09:11 GMT-0800 (Pacific Standard Time),1542514151904,18.19235,NA,9,describePicture
223,36285,20,NA,,graduated_high_school,1542515243445,16,white,female,"Punjabi, Hindi, English",NA,1,10,@ਕੋਈ@ ਬਿੰਦੀ ਚਿੱਟੀ ਹੈ,,,NA,Sat Nov 17 2018 20:09:11 GMT-0800 (Pacific Standard Time),1542514151904,18.19235,NA,10,describePicture
223,14020,20,NA,,graduated_high_school,1542515243445,16,white,female,"Punjabi, Hindi, English",NA,0,49,@ਕੋਈ ਵੀ@ ਬਿੰਦੀ ਚਿੱਟੀ @ਨਹੀਂ@ ਹੈ,,,NA,Sat Nov 17 2018 20:09:11 GMT-0800 (Pacific Standard Time),1542514151904,18.19235,NA,11,describePicture
223,19590,20,NA,,graduated_high_school,1542515243445,16,white,female,"Punjabi, Hindi, English",NA,6,10,@ਜ਼ਿਆਦਾਤਰ@ ਬਿੰਦੀਆਂ ਚਿੱਟੀਆਂ ਹਨ,,,NA,Sat Nov 17 2018 20:09:11 GMT-0800 (Pacific Standard Time),1542514151904,18.19235,NA,12,describePicture
223,13412,20,NA,,graduated_high_school,1542515243445,16,black,female,"Punjabi, Hindi, English",NA,5,10,@ਕੁਝ@ ਬਿੰਦੀਆਂ ਕਾਲੀਆਂ ਹਨ,,,NA,Sat Nov 17 2018 20:09:11 GMT-0800 (Pacific Standard Time),1542514151904,18.19235,NA,13,describePicture
223,27450,20,NA,,graduated_high_school,1542515243445,16,black,female,"Punjabi, Hindi, English",NA,20,49,@ਕੁਝ@ ਬਿੰਦੀਆਂ ਕਾਲੀਆਂ ਹਨ,,,NA,Sat Nov 17 2018 20:09:11 GMT-0800 (Pacific Standard Time),1542514151904,18.19235,NA,14,describePicture
223,7467,20,NA,,graduated_high_school,1542515243445,16,black,female,"Punjabi, Hindi, English",NA,12,49,@ਕੁਝ@ ਬਿੰਦੀਆਂ ਕਾਲੀਆਂ ਹਨ,,,NA,Sat Nov 17 2018 20:09:11 GMT-0800 (Pacific Standard Time),1542514151904,18.19235,NA,15,describePicture
223,9303,20,NA,,graduated_high_school,1542515243445,16,black,female,"Punjabi, Hindi, English",NA,7,10,@ਜ਼ਿਆਦਾਤਰ@ ਬਿੰਦੀਆਂ ਕਾਲੀਆਂ ਹਨ,,,NA,Sat Nov 17 2018 20:09:11 GMT-0800 (Pacific Standard Time),1542514151904,18.19235,NA,16,describePicture
223,33457,20,NA,,graduated_high_school,1542515243445,16,black,female,"Punjabi, Hindi, English",NA,30,49,@ਜ਼ਿਆਦਾਤਰ@ ਬਿੰਦੀਆਂ ਕਾਲੀਆਂ ਹਨ,,,NA,Sat Nov 17 2018 20:09:11 GMT-0800 (Pacific Standard Time),1542514151904,18.19235,NA,17,describePicture
223,11201,20,NA,,graduated_high_school,1542515243445,16,white,female,"Punjabi, Hindi, English",NA,39,49,@ਜ਼ਿਆਦਾਤਰ@ ਬਿੰਦੀਆਂ ਚਿੱਟੀਆਂ ਹਨ,,,NA,Sat Nov 17 2018 20:09:11 GMT-0800 (Pacific Standard Time),1542514151904,18.19235,NA,18,describePicture
223,37115,20,NA,,graduated_high_school,1542515243445,16,white,female,"Punjabi, Hindi, English",NA,3,10,@ਕੁੱਝ@ ਬਿੰਦੀਆਂ ਚਿੱਟੀਆਂ ਹਨ,,,NA,Sat Nov 17 2018 20:09:11 GMT-0800 (Pacific Standard Time),1542514151904,18.19235,NA,19,describePicture
223,8380,20,NA,,graduated_high_school,1542515243445,16,black,female,"Punjabi, Hindi, English",NA,10,10,@ਸਾਰੀ@ ਬਿੰਦੀਆਂ ਕਾਲੀਆਂ ਹਨ,,,NA,Sat Nov 17 2018 20:09:11 GMT-0800 (Pacific Standard Time),1542514151904,18.19235,NA,20,describePicture
223,12771,20,NA,,graduated_high_school,1542515243445,16,black,female,"Punjabi, Hindi, English",NA,3,49,@ਕੁੱਝ@ ਬਿੰਦੀਆਂ ਕਾਲੀਆਂ ਹਨ,,,NA,Sat Nov 17 2018 20:09:11 GMT-0800 (Pacific Standard Time),1542514151904,18.19235,NA,21,describePicture
223,6470,20,NA,,graduated_high_school,1542515243445,16,black,female,"Punjabi, Hindi, English",NA,49,49,@ਸਾਰੀ@ ਬਿੰਦੀਆਂ ਕਾਲੀਆਂ ਹਨ,,,NA,Sat Nov 17 2018 20:09:11 GMT-0800 (Pacific Standard Time),1542514151904,18.19235,NA,22,describePicture
223,9541,20,NA,,graduated_high_school,1542515243445,16,black,female,"Punjabi, Hindi, English",NA,43,49,@ਜ਼ਿਆਦਾਤਰ@ ਬਿੰਦੀਆਂ ਕਾਲੀਆਂ ਹਨ,,,NA,Sat Nov 17 2018 20:09:11 GMT-0800 (Pacific Standard Time),1542514151904,18.19235,NA,23,describePicture
223,10284,20,NA,,graduated_high_school,1542515243445,16,white,female,"Punjabi, Hindi, English",NA,23,49,@ਕੁੱਝ@ ਬਿੰਦੀਆਂ ਚਿੱਟੀਆਂ ਹਨ,,,NA,Sat Nov 17 2018 20:09:11 GMT-0800 (Pacific Standard Time),1542514151904,18.19235,NA,24,describePicture
223,6825,20,NA,,graduated_high_school,1542515243445,16,black,female,"Punjabi, Hindi, English",NA,46,49,@ਜ਼ਿਆਦਾਤਰ@ ਬਿੰਦੀਆਂ ਕਾਲੀਆਂ ਹਨ,,,NA,Sat Nov 17 2018 20:09:11 GMT-0800 (Pacific Standard Time),1542514151904,18.19235,NA,25,describePicture
223,17257,20,true,,graduated_high_school,1542515243445,16,black,female,"Punjabi, Hindi, English",NA,8,49,NA,NA,NA,@ਕੁਝ@ ਬਿੰਦੀਆਂ ਕਾਲੀਆਂ ਹਨ,Sat Nov 17 2018 20:09:11 GMT-0800 (Pacific Standard Time),1542514151904,18.19235,NA,1,truthValueJudgement
223,14758,20,false,,graduated_high_school,1542515243445,16,black,female,"Punjabi, Hindi, English",NA,40,49,NA,NA,NA,@ਕੁਝ@ ਬਿੰਦੀਆਂ ਕਾਲੀਆਂ ਹਨ,Sat Nov 17 2018 20:09:11 GMT-0800 (Pacific Standard Time),1542514151904,18.19235,NA,2,truthValueJudgement
223,6719,20,false,,graduated_high_school,1542515243445,16,black,female,"Punjabi, Hindi, English",NA,47,49,NA,NA,NA,@ਕੁਝ@ ਬਿੰਦੀਆਂ ਕਾਲੀਆਂ ਹਨ,Sat Nov 17 2018 20:09:11 GMT-0800 (Pacific Standard Time),1542514151904,18.19235,NA,3,truthValueJudgement
223,7062,20,true,,graduated_high_school,1542515243445,16,black,female,"Punjabi, Hindi, English",NA,10,49,NA,NA,NA,@ਕੁਝ@ ਬਿੰਦੀਆਂ ਕਾਲੀਆਂ ਹਨ,Sat Nov 17 2018 20:09:11 GMT-0800 (Pacific Standard Time),1542514151904,18.19235,NA,4,truthValueJudgement
223,5648,20,true,,graduated_high_school,1542515243445,16,black,female,"Punjabi, Hindi, English",NA,11,49,NA,NA,NA,@ਕੁਝ@ ਬਿੰਦੀਆਂ ਕਾਲੀਆਂ ਹਨ,Sat Nov 17 2018 20:09:11 GMT-0800 (Pacific Standard Time),1542514151904,18.19235,NA,5,truthValueJudgement
223,8746,20,true,,graduated_high_school,1542515243445,16,white,female,"Punjabi, Hindi, English",NA,26,49,NA,NA,NA,@ਕੁਝ@ ਬਿੰਦੀਆਂ ਚਿੱਟੀਆਂ ਹਨ,Sat Nov 17 2018 20:09:11 GMT-0800 (Pacific Standard Time),1542514151904,18.19235,NA,6,truthValueJudgement
223,8229,20,true,,graduated_high_school,1542515243445,16,white,female,"Punjabi, Hindi, English",NA,17,49,NA,NA,NA,@ਕੁਝ@ ਬਿੰਦੀਆਂ ਚਿੱਟੀਆਂ ਹਨ,Sat Nov 17 2018 20:09:11 GMT-0800 (Pacific Standard Time),1542514151904,18.19235,NA,7,truthValueJudgement
223,4093,20,false,,graduated_high_school,1542515243445,16,white,female,"Punjabi, Hindi, English",NA,0,49,NA,NA,NA,@ਕੁਝ@ ਬਿੰਦੀਆਂ ਚਿੱਟੀਆਂ ਹਨ,Sat Nov 17 2018 20:09:11 GMT-0800 (Pacific Standard Time),1542514151904,18.19235,NA,8,truthValueJudgement
223,3476,20,true,,graduated_high_school,1542515243445,16,white,female,"Punjabi, Hindi, English",NA,6,49,NA,NA,NA,@ਕੁਝ@ ਬਿੰਦੀਆਂ ਚਿੱਟੀਆਂ ਹਨ,Sat Nov 17 2018 20:09:11 GMT-0800 (Pacific Standard Time),1542514151904,18.19235,NA,9,truthValueJudgement
223,5672,20,true,,graduated_high_school,1542515243445,16,white,female,"Punjabi, Hindi, English",NA,24,49,NA,NA,NA,@ਕੁਝ@ ਬਿੰਦੀਆਂ ਚਿੱਟੀਆਂ ਹਨ,Sat Nov 17 2018 20:09:11 GMT-0800 (Pacific Standard Time),1542514151904,18.19235,NA,10,truthValueJudgement
223,6585,20,true,,graduated_high_school,1542515243445,16,black,female,"Punjabi, Hindi, English",NA,10,10,NA,NA,NA,@ਕੋਈ ਵੀ@ ਬਿੰਦੀ ਕਾਲੀ @ਨਹੀਂ@ ਹੈ,Sat Nov 17 2018 20:09:11 GMT-0800 (Pacific Standard Time),1542514151904,18.19235,NA,11,truthValueJudgement
223,2657,20,false,,graduated_high_school,1542515243445,16,black,female,"Punjabi, Hindi, English",NA,9,10,NA,NA,NA,@ਕੋਈ ਵੀ@ ਬਿੰਦੀ ਕਾਲੀ @ਨਹੀਂ@ ਹੈ,Sat Nov 17 2018 20:09:11 GMT-0800 (Pacific Standard Time),1542514151904,18.19235,NA,12,truthValueJudgement
223,10322,20,false,,graduated_high_school,1542515243445,16,black,female,"Punjabi, Hindi, English",NA,1,10,NA,NA,NA,@ਕੋਈ ਵੀ@ ਬਿੰਦੀ ਕਾਲੀ @ਨਹੀਂ@ ਹੈ,Sat Nov 17 2018 20:09:11 GMT-0800 (Pacific Standard Time),1542514151904,18.19235,NA,13,truthValueJudgement
223,7206,20,false,,graduated_high_school,1542515243445,16,black,female,"Punjabi, Hindi, English",NA,10,10,NA,NA,NA,@ਕੋਈ ਵੀ@ ਬਿੰਦੀ ਕਾਲੀ @ਨਹੀਂ@ ਹੈ,Sat Nov 17 2018 20:09:11 GMT-0800 (Pacific Standard Time),1542514151904,18.19235,NA,14,truthValueJudgement
223,4348,20,false,,graduated_high_school,1542515243445,16,black,female,"Punjabi, Hindi, English",NA,8,10,NA,NA,NA,@ਕੋਈ ਵੀ@ ਬਿੰਦੀ ਕਾਲੀ @ਨਹੀਂ@ ਹੈ,Sat Nov 17 2018 20:09:11 GMT-0800 (Pacific Standard Time),1542514151904,18.19235,NA,15,truthValueJudgement
223,4798,20,true,,graduated_high_school,1542515243445,16,black,female,"Punjabi, Hindi, English",NA,46,49,NA,NA,NA,@ਜ਼ਿਆਦਾਤਰ@ ਬਿੰਦੀਆਂ ਕਾਲੀਆਂ ਹਨ,Sat Nov 17 2018 20:09:11 GMT-0800 (Pacific Standard Time),1542514151904,18.19235,NA,16,truthValueJudgement
223,3025,20,true,,graduated_high_school,1542515243445,16,black,female,"Punjabi, Hindi, English",NA,44,49,NA,NA,NA,@ਜ਼ਿਆਦਾਤਰ@ ਬਿੰਦੀਆਂ ਕਾਲੀਆਂ ਹਨ,Sat Nov 17 2018 20:09:11 GMT-0800 (Pacific Standard Time),1542514151904,18.19235,NA,17,truthValueJudgement
223,5111,20,true,,graduated_high_school,1542515243445,16,black,female,"Punjabi, Hindi, English",NA,33,49,NA,NA,NA,@ਜ਼ਿਆਦਾਤਰ@ ਬਿੰਦੀਆਂ ਕਾਲੀਆਂ ਹਨ,Sat Nov 17 2018 20:09:11 GMT-0800 (Pacific Standard Time),1542514151904,18.19235,NA,18,truthValueJudgement
223,2239,20,true,,graduated_high_school,1542515243445,16,black,female,"Punjabi, Hindi, English",NA,43,49,NA,NA,NA,@ਜ਼ਿਆਦਾਤਰ@ ਬਿੰਦੀਆਂ ਕਾਲੀਆਂ ਹਨ,Sat Nov 17 2018 20:09:11 GMT-0800 (Pacific Standard Time),1542514151904,18.19235,NA,19,truthValueJudgement
223,2555,20,true,,graduated_high_school,1542515243445,16,black,female,"Punjabi, Hindi, English",NA,47,49,NA,NA,NA,@ਜ਼ਿਆਦਾਤਰ@ ਬਿੰਦੀਆਂ ਕਾਲੀਆਂ ਹਨ,Sat Nov 17 2018 20:09:11 GMT-0800 (Pacific Standard Time),1542514151904,18.19235,NA,20,truthValueJudgement
223,4740,20,false,,graduated_high_school,1542515243445,16,white,female,"Punjabi, Hindi, English",NA,3,10,NA,NA,NA,@ਜ਼ਿਆਦਾਤਰ@ ਬਿੰਦੀਆਂ ਚਿੱਟੀਆਂ ਹਨ,Sat Nov 17 2018 20:09:11 GMT-0800 (Pacific Standard Time),1542514151904,18.19235,NA,21,truthValueJudgement
223,3089,20,true,,graduated_high_school,1542515243445,16,white,female,"Punjabi, Hindi, English",NA,7,10,NA,NA,NA,@ਜ਼ਿਆਦਾਤਰ@ ਬਿੰਦੀਆਂ ਚਿੱਟੀਆਂ ਹਨ,Sat Nov 17 2018 20:09:11 GMT-0800 (Pacific Standard Time),1542514151904,18.19235,NA,22,truthValueJudgement
223,2516,20,true,,graduated_high_school,1542515243445,16,white,female,"Punjabi, Hindi, English",NA,8,10,NA,NA,NA,@ਜ਼ਿਆਦਾਤਰ@ ਬਿੰਦੀਆਂ ਚਿੱਟੀਆਂ ਹਨ,Sat Nov 17 2018 20:09:11 GMT-0800 (Pacific Standard Time),1542514151904,18.19235,NA,23,truthValueJudgement
223,3309,20,true,,graduated_high_school,1542515243445,16,white,female,"Punjabi, Hindi, English",NA,8,10,NA,NA,NA,@ਜ਼ਿਆਦਾਤਰ@ ਬਿੰਦੀਆਂ ਚਿੱਟੀਆਂ ਹਨ,Sat Nov 17 2018 20:09:11 GMT-0800 (Pacific Standard Time),1542514151904,18.19235,NA,24,truthValueJudgement
223,2516,20,true,,graduated_high_school,1542515243445,16,white,female,"Punjabi, Hindi, English",NA,8,10,NA,NA,NA,@ਜ਼ਿਆਦਾਤਰ@ ਬਿੰਦੀਆਂ ਚਿੱਟੀਆਂ ਹਨ,Sat Nov 17 2018 20:09:11 GMT-0800 (Pacific Standard Time),1542514151904,18.19235,NA,25,truthValueJudgement
223,5395,20,false,,graduated_high_school,1542515243445,16,black,female,"Punjabi, Hindi, English",NA,0,10,NA,NA,NA,@ਜ਼ਿਆਦਾਤਰ@ ਬਿੰਦੀਆਂ ਕਾਲੀਆਂ ਹਨ,Sat Nov 17 2018 20:09:11 GMT-0800 (Pacific Standard Time),1542514151904,18.19235,NA,26,truthValueJudgement
223,3309,20,true,,graduated_high_school,1542515243445,16,black,female,"Punjabi, Hindi, English",NA,7,10,NA,NA,NA,@ਜ਼ਿਆਦਾਤਰ@ ਬਿੰਦੀਆਂ ਕਾਲੀਆਂ ਹਨ,Sat Nov 17 2018 20:09:11 GMT-0800 (Pacific Standard Time),1542514151904,18.19235,NA,27,truthValueJudgement
223,2244,20,true,,graduated_high_school,1542515243445,16,black,female,"Punjabi, Hindi, English",NA,9,10,NA,NA,NA,@ਜ਼ਿਆਦਾਤਰ@ ਬਿੰਦੀਆਂ ਕਾਲੀਆਂ ਹਨ,Sat Nov 17 2018 20:09:11 GMT-0800 (Pacific Standard Time),1542514151904,18.19235,NA,28,truthValueJudgement
223,2610,20,false,,graduated_high_school,1542515243445,16,black,female,"Punjabi, Hindi, English",NA,0,10,NA,NA,NA,@ਜ਼ਿਆਦਾਤਰ@ ਬਿੰਦੀਆਂ ਕਾਲੀਆਂ ਹਨ,Sat Nov 17 2018 20:09:11 GMT-0800 (Pacific Standard Time),1542514151904,18.19235,NA,29,truthValueJudgement
223,2249,20,true,,graduated_high_school,1542515243445,16,black,female,"Punjabi, Hindi, English",NA,9,10,NA,NA,NA,@ਜ਼ਿਆਦਾਤਰ@ ਬਿੰਦੀਆਂ ਕਾਲੀਆਂ ਹਨ,Sat Nov 17 2018 20:09:11 GMT-0800 (Pacific Standard Time),1542514151904,18.19235,NA,30,truthValueJudgement
223,2512,20,false,,graduated_high_school,1542515243445,16,black,female,"Punjabi, Hindi, English",NA,3,10,NA,NA,NA,@ਕੁਝ@ ਬਿੰਦੀਆਂ ਕਾਲੀਆਂ ਹਨ,Sat Nov 17 2018 20:09:11 GMT-0800 (Pacific Standard Time),1542514151904,18.19235,NA,31,truthValueJudgement
223,7157,20,true,,graduated_high_school,1542515243445,16,black,female,"Punjabi, Hindi, English",NA,5,10,NA,NA,NA,@ਕੁਝ@ ਬਿੰਦੀਆਂ ਕਾਲੀਆਂ ਹਨ,Sat Nov 17 2018 20:09:11 GMT-0800 (Pacific Standard Time),1542514151904,18.19235,NA,32,truthValueJudgement
223,2001,20,true,,graduated_high_school,1542515243445,16,black,female,"Punjabi, Hindi, English",NA,4,10,NA,NA,NA,@ਕੁਝ@ ਬਿੰਦੀਆਂ ਕਾਲੀਆਂ ਹਨ,Sat Nov 17 2018 20:09:11 GMT-0800 (Pacific Standard Time),1542514151904,18.19235,NA,33,truthValueJudgement
223,3621,20,false,,graduated_high_school,1542515243445,16,black,female,"Punjabi, Hindi, English",NA,0,10,NA,NA,NA,@ਕੁਝ@ ਬਿੰਦੀਆਂ ਕਾਲੀਆਂ ਹਨ,Sat Nov 17 2018 20:09:11 GMT-0800 (Pacific Standard Time),1542514151904,18.19235,NA,34,truthValueJudgement
223,2704,20,true,,graduated_high_school,1542515243445,16,black,female,"Punjabi, Hindi, English",NA,4,10,NA,NA,NA,@ਕੁਝ@ ਬਿੰਦੀਆਂ ਕਾਲੀਆਂ ਹਨ,Sat Nov 17 2018 20:09:11 GMT-0800 (Pacific Standard Time),1542514151904,18.19235,NA,35,truthValueJudgement
223,15759,20,false,,graduated_high_school,1542515243445,16,white,female,"Punjabi, Hindi, English",NA,9,10,NA,NA,NA,@ਕੋਈ@ ਬਿੰਦੀ ਚਿੱਟੀ ਹੈ,Sat Nov 17 2018 20:09:11 GMT-0800 (Pacific Standard Time),1542514151904,18.19235,NA,36,truthValueJudgement
223,4514,20,false,,graduated_high_school,1542515243445,16,white,female,"Punjabi, Hindi, English",NA,10,10,NA,NA,NA,@ਕੋਈ@ ਬਿੰਦੀ ਚਿੱਟੀ ਹੈ,Sat Nov 17 2018 20:09:11 GMT-0800 (Pacific Standard Time),1542514151904,18.19235,NA,37,truthValueJudgement
223,3400,20,true,,graduated_high_school,1542515243445,16,white,female,"Punjabi, Hindi, English",NA,1,10,NA,NA,NA,@ਕੋਈ@ ਬਿੰਦੀ ਚਿੱਟੀ ਹੈ,Sat Nov 17 2018 20:09:11 GMT-0800 (Pacific Standard Time),1542514151904,18.19235,NA,38,truthValueJudgement
223,2368,20,true,,graduated_high_school,1542515243445,16,white,female,"Punjabi, Hindi, English",NA,1,10,NA,NA,NA,@ਕੋਈ@ ਬਿੰਦੀ ਚਿੱਟੀ ਹੈ,Sat Nov 17 2018 20:09:11 GMT-0800 (Pacific Standard Time),1542514151904,18.19235,NA,39,truthValueJudgement
223,3435,20,false,,graduated_high_school,1542515243445,16,white,female,"Punjabi, Hindi, English",NA,8,10,NA,NA,NA,@ਕੋਈ@ ਬਿੰਦੀ ਚਿੱਟੀ ਹੈ,Sat Nov 17 2018 20:09:11 GMT-0800 (Pacific Standard Time),1542514151904,18.19235,NA,40,truthValueJudgement
223,7819,20,false,,graduated_high_school,1542515243445,16,white,female,"Punjabi, Hindi, English",NA,44,49,NA,NA,NA,@ਕੋਈ ਵੀ@ ਬਿੰਦੀ ਚਿੱਟੀ @ਨਹੀਂ@ ਹੈ,Sat Nov 17 2018 20:09:11 GMT-0800 (Pacific Standard Time),1542514151904,18.19235,NA,41,truthValueJudgement
223,2479,20,false,,graduated_high_school,1542515243445,16,white,female,"Punjabi, Hindi, English",NA,10,49,NA,NA,NA,@ਕੋਈ ਵੀ@ ਬਿੰਦੀ ਚਿੱਟੀ @ਨਹੀਂ@ ਹੈ,Sat Nov 17 2018 20:09:11 GMT-0800 (Pacific Standard Time),1542514151904,18.19235,NA,42,truthValueJudgement
223,2526,20,false,,graduated_high_school,1542515243445,16,white,female,"Punjabi, Hindi, English",NA,2,49,NA,NA,NA,@ਕੋਈ ਵੀ@ ਬਿੰਦੀ ਚਿੱਟੀ @ਨਹੀਂ@ ਹੈ,Sat Nov 17 2018 20:09:11 GMT-0800 (Pacific Standard Time),1542514151904,18.19235,NA,43,truthValueJudgement
223,2820,20,false,,graduated_high_school,1542515243445,16,white,female,"Punjabi, Hindi, English",NA,47,49,NA,NA,NA,@ਕੋਈ ਵੀ@ ਬਿੰਦੀ ਚਿੱਟੀ @ਨਹੀਂ@ ਹੈ,Sat Nov 17 2018 20:09:11 GMT-0800 (Pacific Standard Time),1542514151904,18.19235,NA,44,truthValueJudgement
223,2188,20,false,,graduated_high_school,1542515243445,16,white,female,"Punjabi, Hindi, English",NA,4,49,NA,NA,NA,@ਕੋਈ ਵੀ@ ਬਿੰਦੀ ਚਿੱਟੀ @ਨਹੀਂ@ ਹੈ,Sat Nov 17 2018 20:09:11 GMT-0800 (Pacific Standard Time),1542514151904,18.19235,NA,45,truthValueJudgement
223,4175,20,true,,graduated_high_school,1542515243445,16,white,female,"Punjabi, Hindi, English",NA,37,49,NA,NA,NA,@ਜ਼ਿਆਦਾਤਰ@ ਬਿੰਦੀਆਂ ਚਿੱਟੀਆਂ ਹਨ,Sat Nov 17 2018 20:09:11 GMT-0800 (Pacific Standard Time),1542514151904,18.19235,NA,46,truthValueJudgement
223,2175,20,true,,graduated_high_school,1542515243445,16,white,female,"Punjabi, Hindi, English",NA,37,49,NA,NA,NA,@ਜ਼ਿਆਦਾਤਰ@ ਬਿੰਦੀਆਂ ਚਿੱਟੀਆਂ ਹਨ,Sat Nov 17 2018 20:09:11 GMT-0800 (Pacific Standard Time),1542514151904,18.19235,NA,47,truthValueJudgement
223,3683,20,false,,graduated_high_school,1542515243445,16,white,female,"Punjabi, Hindi, English",NA,11,49,NA,NA,NA,@ਜ਼ਿਆਦਾਤਰ@ ਬਿੰਦੀਆਂ ਚਿੱਟੀਆਂ ਹਨ,Sat Nov 17 2018 20:09:11 GMT-0800 (Pacific Standard Time),1542514151904,18.19235,NA,48,truthValueJudgement
223,2615,20,true,,graduated_high_school,1542515243445,16,white,female,"Punjabi, Hindi, English",NA,42,49,NA,NA,NA,@ਜ਼ਿਆਦਾਤਰ@ ਬਿੰਦੀਆਂ ਚਿੱਟੀਆਂ ਹਨ,Sat Nov 17 2018 20:09:11 GMT-0800 (Pacific Standard Time),1542514151904,18.19235,NA,49,truthValueJudgement
223,2561,20,true,,graduated_high_school,1542515243445,16,white,female,"Punjabi, Hindi, English",NA,42,49,NA,NA,NA,@ਜ਼ਿਆਦਾਤਰ@ ਬਿੰਦੀਆਂ ਚਿੱਟੀਆਂ ਹਨ,Sat Nov 17 2018 20:09:11 GMT-0800 (Pacific Standard Time),1542514151904,18.19235,NA,50,truthValueJudgement
223,4021,20,true,,graduated_high_school,1542515243445,16,white,female,"Punjabi, Hindi, English",NA,3,10,NA,NA,NA,@ਕੁੱਝ@ ਬਿੰਦੀਆਂ ਚਿੱਟੀਆਂ ਹਨ,Sat Nov 17 2018 20:09:11 GMT-0800 (Pacific Standard Time),1542514151904,18.19235,NA,51,truthValueJudgement
223,3684,20,true,,graduated_high_school,1542515243445,16,white,female,"Punjabi, Hindi, English",NA,3,10,NA,NA,NA,@ਕੁੱਝ@ ਬਿੰਦੀਆਂ ਚਿੱਟੀਆਂ ਹਨ,Sat Nov 17 2018 20:09:11 GMT-0800 (Pacific Standard Time),1542514151904,18.19235,NA,52,truthValueJudgement
223,2932,20,true,,graduated_high_school,1542515243445,16,white,female,"Punjabi, Hindi, English",NA,2,10,NA,NA,NA,@ਕੁੱਝ@ ਬਿੰਦੀਆਂ ਚਿੱਟੀਆਂ ਹਨ,Sat Nov 17 2018 20:09:11 GMT-0800 (Pacific Standard Time),1542514151904,18.19235,NA,53,truthValueJudgement
223,1832,20,true,,graduated_high_school,1542515243445,16,white,female,"Punjabi, Hindi, English",NA,4,10,NA,NA,NA,@ਕੁੱਝ@ ਬਿੰਦੀਆਂ ਚਿੱਟੀਆਂ ਹਨ,Sat Nov 17 2018 20:09:11 GMT-0800 (Pacific Standard Time),1542514151904,18.19235,NA,54,truthValueJudgement
223,2936,20,true,,graduated_high_school,1542515243445,16,white,female,"Punjabi, Hindi, English",NA,3,10,NA,NA,NA,@ਕੁੱਝ@ ਬਿੰਦੀਆਂ ਚਿੱਟੀਆਂ ਹਨ,Sat Nov 17 2018 20:09:11 GMT-0800 (Pacific Standard Time),1542514151904,18.19235,NA,55,truthValueJudgement
223,3284,20,false,,graduated_high_school,1542515243445,16,black,female,"Punjabi, Hindi, English",NA,3,10,NA,NA,NA,@ਸਾਰੀ@ ਬਿੰਦੀਆਂ ਕਾਲੀਆਂ ਹਨ,Sat Nov 17 2018 20:09:11 GMT-0800 (Pacific Standard Time),1542514151904,18.19235,NA,56,truthValueJudgement
223,2674,20,true,,graduated_high_school,1542515243445,16,black,female,"Punjabi, Hindi, English",NA,10,10,NA,NA,NA,@ਸਾਰੀ@ ਬਿੰਦੀਆਂ ਕਾਲੀਆਂ ਹਨ,Sat Nov 17 2018 20:09:11 GMT-0800 (Pacific Standard Time),1542514151904,18.19235,NA,57,truthValueJudgement
223,4552,20,true,,graduated_high_school,1542515243445,16,black,female,"Punjabi, Hindi, English",NA,10,10,NA,NA,NA,@ਸਾਰੀ@ ਬਿੰਦੀਆਂ ਕਾਲੀਆਂ ਹਨ,Sat Nov 17 2018 20:09:11 GMT-0800 (Pacific Standard Time),1542514151904,18.19235,NA,58,truthValueJudgement
223,2771,20,false,,graduated_high_school,1542515243445,16,black,female,"Punjabi, Hindi, English",NA,3,10,NA,NA,NA,@ਸਾਰੀ@ ਬਿੰਦੀਆਂ ਕਾਲੀਆਂ ਹਨ,Sat Nov 17 2018 20:09:11 GMT-0800 (Pacific Standard Time),1542514151904,18.19235,NA,59,truthValueJudgement
223,5711,20,true,,graduated_high_school,1542515243445,16,black,female,"Punjabi, Hindi, English",NA,10,10,NA,NA,NA,@ਸਾਰੀ@ ਬਿੰਦੀਆਂ ਕਾਲੀਆਂ ਹਨ,Sat Nov 17 2018 20:09:11 GMT-0800 (Pacific Standard Time),1542514151904,18.19235,NA,60,truthValueJudgement
223,11652,20,false,,graduated_high_school,1542515243445,16,black,female,"Punjabi, Hindi, English",NA,48,49,NA,NA,NA,@ਕੁੱਝ@ ਬਿੰਦੀਆਂ ਕਾਲੀਆਂ ਹਨ,Sat Nov 17 2018 20:09:11 GMT-0800 (Pacific Standard Time),1542514151904,18.19235,NA,61,truthValueJudgement
223,2410,20,true,,graduated_high_school,1542515243445,16,black,female,"Punjabi, Hindi, English",NA,3,49,NA,NA,NA,@ਕੁੱਝ@ ਬਿੰਦੀਆਂ ਕਾਲੀਆਂ ਹਨ,Sat Nov 17 2018 20:09:11 GMT-0800 (Pacific Standard Time),1542514151904,18.19235,NA,62,truthValueJudgement
223,4658,20,true,,graduated_high_school,1542515243445,16,black,female,"Punjabi, Hindi, English",NA,21,49,NA,NA,NA,@ਕੁੱਝ@ ਬਿੰਦੀਆਂ ਕਾਲੀਆਂ ਹਨ,Sat Nov 17 2018 20:09:11 GMT-0800 (Pacific Standard Time),1542514151904,18.19235,NA,63,truthValueJudgement
223,4752,20,true,,graduated_high_school,1542515243445,16,black,female,"Punjabi, Hindi, English",NA,8,49,NA,NA,NA,@ਕੁੱਝ@ ਬਿੰਦੀਆਂ ਕਾਲੀਆਂ ਹਨ,Sat Nov 17 2018 20:09:11 GMT-0800 (Pacific Standard Time),1542514151904,18.19235,NA,64,truthValueJudgement
223,3430,20,true,,graduated_high_school,1542515243445,16,black,female,"Punjabi, Hindi, English",NA,8,49,NA,NA,NA,@ਕੁੱਝ@ ਬਿੰਦੀਆਂ ਕਾਲੀਆਂ ਹਨ,Sat Nov 17 2018 20:09:11 GMT-0800 (Pacific Standard Time),1542514151904,18.19235,NA,65,truthValueJudgement
223,3716,20,false,,graduated_high_school,1542515243445,16,black,female,"Punjabi, Hindi, English",NA,42,49,NA,NA,NA,@ਸਾਰੀ@ ਬਿੰਦੀਆਂ ਕਾਲੀਆਂ ਹਨ,Sat Nov 17 2018 20:09:11 GMT-0800 (Pacific Standard Time),1542514151904,18.19235,NA,66,truthValueJudgement
223,2309,20,false,,graduated_high_school,1542515243445,16,black,female,"Punjabi, Hindi, English",NA,42,49,NA,NA,NA,@ਸਾਰੀ@ ਬਿੰਦੀਆਂ ਕਾਲੀਆਂ ਹਨ,Sat Nov 17 2018 20:09:11 GMT-0800 (Pacific Standard Time),1542514151904,18.19235,NA,67,truthValueJudgement
223,1822,20,true,,graduated_high_school,1542515243445,16,black,female,"Punjabi, Hindi, English",NA,49,49,NA,NA,NA,@ਸਾਰੀ@ ਬਿੰਦੀਆਂ ਕਾਲੀਆਂ ਹਨ,Sat Nov 17 2018 20:09:11 GMT-0800 (Pacific Standard Time),1542514151904,18.19235,NA,68,truthValueJudgement
223,2055,20,false,,graduated_high_school,1542515243445,16,black,female,"Punjabi, Hindi, English",NA,38,49,NA,NA,NA,@ਸਾਰੀ@ ਬਿੰਦੀਆਂ ਕਾਲੀਆਂ ਹਨ,Sat Nov 17 2018 20:09:11 GMT-0800 (Pacific Standard Time),1542514151904,18.19235,NA,69,truthValueJudgement
223,4277,20,false,,graduated_high_school,1542515243445,16,black,female,"Punjabi, Hindi, English",NA,42,49,NA,NA,NA,@ਸਾਰੀ@ ਬਿੰਦੀਆਂ ਕਾਲੀਆਂ ਹਨ,Sat Nov 17 2018 20:09:11 GMT-0800 (Pacific Standard Time),1542514151904,18.19235,NA,70,truthValueJudgement
223,10741,20,false,,graduated_high_school,1542515243445,16,white,female,"Punjabi, Hindi, English",NA,30,49,NA,NA,NA,@ਕੁੱਝ@ ਬਿੰਦੀਆਂ ਚਿੱਟੀਆਂ ਹਨ,Sat Nov 17 2018 20:09:11 GMT-0800 (Pacific Standard Time),1542514151904,18.19235,NA,71,truthValueJudgement
223,2640,20,false,,graduated_high_school,1542515243445,16,white,female,"Punjabi, Hindi, English",NA,49,49,NA,NA,NA,@ਕੁੱਝ@ ਬਿੰਦੀਆਂ ਚਿੱਟੀਆਂ ਹਨ,Sat Nov 17 2018 20:09:11 GMT-0800 (Pacific Standard Time),1542514151904,18.19235,NA,72,truthValueJudgement
223,2345,20,false,,graduated_high_school,1542515243445,16,white,female,"Punjabi, Hindi, English",NA,44,49,NA,NA,NA,@ਕੁੱਝ@ ਬਿੰਦੀਆਂ ਚਿੱਟੀਆਂ ਹਨ,Sat Nov 17 2018 20:09:11 GMT-0800 (Pacific Standard Time),1542514151904,18.19235,NA,73,truthValueJudgement
223,2351,20,false,,graduated_high_school,1542515243445,16,white,female,"Punjabi, Hindi, English",NA,48,49,NA,NA,NA,@ਕੁੱਝ@ ਬਿੰਦੀਆਂ ਚਿੱਟੀਆਂ ਹਨ,Sat Nov 17 2018 20:09:11 GMT-0800 (Pacific Standard Time),1542514151904,18.19235,NA,74,truthValueJudgement
223,1724,20,true,,graduated_high_school,1542515243445,16,white,female,"Punjabi, Hindi, English",NA,23,49,NA,NA,NA,@ਕੁੱਝ@ ਬਿੰਦੀਆਂ ਚਿੱਟੀਆਂ ਹਨ,Sat Nov 17 2018 20:09:11 GMT-0800 (Pacific Standard Time),1542514151904,18.19235,NA,75,truthValueJudgement
223,9574,20,NA,,graduated_high_school,1542515243445,16,NA,female,"Punjabi, Hindi, English",NA,NA,NA,NA,NA,NA,NA,Sat Nov 17 2018 20:09:11 GMT-0800 (Pacific Standard Time),1542514151904,18.19235,some dots are black,1,translateInput
223,14444,20,NA,,graduated_high_school,1542515243445,16,NA,female,"Punjabi, Hindi, English",NA,NA,NA,NA,NA,NA,NA,Sat Nov 17 2018 20:09:11 GMT-0800 (Pacific Standard Time),1542514151904,18.19235,"some dots are white\n",2,translateInput
223,23426,20,NA,,graduated_high_school,1542515243445,16,NA,female,"Punjabi, Hindi, English",NA,NA,NA,NA,NA,NA,NA,Sat Nov 17 2018 20:09:11 GMT-0800 (Pacific Standard Time),1542514151904,18.19235,"there is no dot that is black\n",3,translateInput
223,8485,20,NA,,graduated_high_school,1542515243445,16,NA,female,"Punjabi, Hindi, English",NA,NA,NA,NA,NA,NA,NA,Sat Nov 17 2018 20:09:11 GMT-0800 (Pacific Standard Time),1542514151904,18.19235,most the dots are black,4,translateInput
223,13844,20,NA,,graduated_high_school,1542515243445,16,NA,female,"Punjabi, Hindi, English",NA,NA,NA,NA,NA,NA,NA,Sat Nov 17 2018 20:09:11 GMT-0800 (Pacific Standard Time),1542514151904,18.19235,most of the dots are white,5,translateInput
223,8368,20,NA,,graduated_high_school,1542515243445,16,NA,female,"Punjabi, Hindi, English",NA,NA,NA,NA,NA,NA,NA,Sat Nov 17 2018 20:09:11 GMT-0800 (Pacific Standard Time),1542514151904,18.19235,most of the dots are black,6,translateInput
223,8008,20,NA,,graduated_high_school,1542515243445,16,NA,female,"Punjabi, Hindi, English",NA,NA,NA,NA,NA,NA,NA,Sat Nov 17 2018 20:09:11 GMT-0800 (Pacific Standard Time),1542514151904,18.19235,some dots are black,7,translateInput
223,17834,20,NA,,graduated_high_school,1542515243445,16,NA,female,"Punjabi, Hindi, English",NA,NA,NA,NA,NA,NA,NA,Sat Nov 17 2018 20:09:11 GMT-0800 (Pacific Standard Time),1542514151904,18.19235,there is some dot that is white,8,translateInput
223,9781,20,NA,,graduated_high_school,1542515243445,16,NA,female,"Punjabi, Hindi, English",NA,NA,NA,NA,NA,NA,NA,Sat Nov 17 2018 20:09:11 GMT-0800 (Pacific Standard Time),1542514151904,18.19235,there is no dot that is white,9,translateInput
223,9353,20,NA,,graduated_high_school,1542515243445,16,NA,female,"Punjabi, Hindi, English",NA,NA,NA,NA,NA,NA,NA,Sat Nov 17 2018 20:09:11 GMT-0800 (Pacific Standard Time),1542514151904,18.19235,most of the dots are white,10,translateInput
223,6207,20,NA,,graduated_high_school,1542515243445,16,NA,female,"Punjabi, Hindi, English",NA,NA,NA,NA,NA,NA,NA,Sat Nov 17 2018 20:09:11 GMT-0800 (Pacific Standard Time),1542514151904,18.19235,some dots are white,11,translateInput
223,10582,20,NA,,graduated_high_school,1542515243445,16,NA,female,"Punjabi, Hindi, English",NA,NA,NA,NA,NA,NA,NA,Sat Nov 17 2018 20:09:11 GMT-0800 (Pacific Standard Time),1542514151904,18.19235,all dots are black,12,translateInput
223,5669,20,NA,,graduated_high_school,1542515243445,16,NA,female,"Punjabi, Hindi, English",NA,NA,NA,NA,NA,NA,NA,Sat Nov 17 2018 20:09:11 GMT-0800 (Pacific Standard Time),1542514151904,18.19235,some dots are black,13,translateInput
223,9920,20,NA,,graduated_high_school,1542515243445,16,NA,female,"Punjabi, Hindi, English",NA,NA,NA,NA,NA,NA,NA,Sat Nov 17 2018 20:09:11 GMT-0800 (Pacific Standard Time),1542514151904,18.19235,all dots are black,14,translateInput
223,7159,20,NA,,graduated_high_school,1542515243445,16,NA,female,"Punjabi, Hindi, English",NA,NA,NA,NA,NA,NA,NA,Sat Nov 17 2018 20:09:11 GMT-0800 (Pacific Standard Time),1542514151904,18.19235,some dots are white,15,translateInput
218,NA,20,NA,,graduated_high_school,1542399867987,16,NA,male,Mandarin Chinese,undefined,NA,NA,NA,NA,NA,NA,Fri Nov 16 2018 10:25:45 GMT-0800 (Pacific Standard Time),1542392745580,118.70678333333333,NA,1,nativeLang
218,153489,20,NA,,graduated_high_school,1542399867987,16,white,male,Mandarin Chinese,NA,1,10,@一个@,只有@一个@,@一@,NA,Fri Nov 16 2018 10:25:45 GMT-0800 (Pacific Standard Time),1542392745580,118.70678333333333,NA,1,describePicture
218,49738,20,NA,,graduated_high_school,1542399867987,16,white,male,Mandarin Chinese,NA,49,49,@很多@,@全@都是,,NA,Fri Nov 16 2018 10:25:45 GMT-0800 (Pacific Standard Time),1542392745580,118.70678333333333,NA,2,describePicture
218,26090,20,NA,,graduated_high_school,1542399867987,16,black,male,Mandarin Chinese,NA,2,10,@两@个黑的,,,NA,Fri Nov 16 2018 10:25:45 GMT-0800 (Pacific Standard Time),1542392745580,118.70678333333333,NA,3,describePicture
218,37836,20,NA,,graduated_high_school,1542399867987,16,black,male,Mandarin Chinese,NA,23,49,百分之@五十@,@半个@,,NA,Fri Nov 16 2018 10:25:45 GMT-0800 (Pacific Standard Time),1542392745580,118.70678333333333,NA,4,describePicture
218,26022,20,NA,,graduated_high_school,1542399867987,16,black,male,Mandarin Chinese,NA,8,10,@大多数@是黑的,@八个@黑的,,NA,Fri Nov 16 2018 10:25:45 GMT-0800 (Pacific Standard Time),1542392745580,118.70678333333333,NA,5,describePicture
218,21589,20,NA,,graduated_high_school,1542399867987,16,white,male,Mandarin Chinese,NA,3,10,@三个@百的,,,NA,Fri Nov 16 2018 10:25:45 GMT-0800 (Pacific Standard Time),1542392745580,118.70678333333333,NA,6,describePicture
218,35417,20,NA,,graduated_high_school,1542399867987,16,white,male,Mandarin Chinese,NA,0,10,@没有@白的,@零@个,,NA,Fri Nov 16 2018 10:25:45 GMT-0800 (Pacific Standard Time),1542392745580,118.70678333333333,NA,7,describePicture
218,17135,20,NA,,graduated_high_school,1542399867987,16,black,male,Mandarin Chinese,NA,41,49,@大多@数,@很多@黑的,,NA,Fri Nov 16 2018 10:25:45 GMT-0800 (Pacific Standard Time),1542392745580,118.70678333333333,NA,8,describePicture
218,18636,20,NA,,graduated_high_school,1542399867987,16,white,male,Mandarin Chinese,NA,6,10,@六个@白的,,,NA,Fri Nov 16 2018 10:25:45 GMT-0800 (Pacific Standard Time),1542392745580,118.70678333333333,NA,9,describePicture
218,17123,20,NA,,graduated_high_school,1542399867987,16,black,male,Mandarin Chinese,NA,4,10,@四个@黑的,@一些@黑的,,NA,Fri Nov 16 2018 10:25:45 GMT-0800 (Pacific Standard Time),1542392745580,118.70678333333333,NA,10,describePicture
218,18457,20,NA,,graduated_high_school,1542399867987,16,black,male,Mandarin Chinese,NA,36,49,@大多数@,,,NA,Fri Nov 16 2018 10:25:45 GMT-0800 (Pacific Standard Time),1542392745580,118.70678333333333,NA,11,describePicture
218,10653,20,NA,,graduated_high_school,1542399867987,16,white,male,Mandarin Chinese,NA,37,49,@大多数@,,,NA,Fri Nov 16 2018 10:25:45 GMT-0800 (Pacific Standard Time),1542392745580,118.70678333333333,NA,12,describePicture
218,28203,20,NA,,graduated_high_school,1542399867987,16,black,male,Mandarin Chinese,NA,19,49,@半@对@半@,@挺多@的,,NA,Fri Nov 16 2018 10:25:45 GMT-0800 (Pacific Standard Time),1542392745580,118.70678333333333,NA,13,describePicture
218,27311,20,NA,,graduated_high_school,1542399867987,16,black,male,Mandarin Chinese,NA,10,10,@全是@黑的,@十个@黑的,,NA,Fri Nov 16 2018 10:25:45 GMT-0800 (Pacific Standard Time),1542392745580,118.70678333333333,NA,14,describePicture
218,16544,20,NA,,graduated_high_school,1542399867987,16,black,male,Mandarin Chinese,NA,31,49,@挺多@黑的,@大多数@,,NA,Fri Nov 16 2018 10:25:45 GMT-0800 (Pacific Standard Time),1542392745580,118.70678333333333,NA,15,describePicture
218,15179,20,NA,,graduated_high_school,1542399867987,16,white,male,Mandarin Chinese,NA,5,10,@五个@,@半对半@,,NA,Fri Nov 16 2018 10:25:45 GMT-0800 (Pacific Standard Time),1542392745580,118.70678333333333,NA,16,describePicture
218,12675,20,NA,,graduated_high_school,1542399867987,16,black,male,Mandarin Chinese,NA,7,10,@大多数@,@七个@,,NA,Fri Nov 16 2018 10:25:45 GMT-0800 (Pacific Standard Time),1542392745580,118.70678333333333,NA,17,describePicture
218,237278,20,NA,,graduated_high_school,1542399867987,16,black,male,Mandarin Chinese,NA,48,49,除了@一个@@全都@是,,,NA,Fri Nov 16 2018 10:25:45 GMT-0800 (Pacific Standard Time),1542392745580,118.70678333333333,NA,18,describePicture
218,10944,20,NA,,graduated_high_school,1542399867987,16,white,male,Mandarin Chinese,NA,6,49,@很少@,@几个@,,NA,Fri Nov 16 2018 10:25:45 GMT-0800 (Pacific Standard Time),1542392745580,118.70678333333333,NA,19,describePicture
218,6140,20,NA,,graduated_high_school,1542399867987,16,black,male,Mandarin Chinese,NA,0,49,@没有@,,,NA,Fri Nov 16 2018 10:25:45 GMT-0800 (Pacific Standard Time),1542392745580,118.70678333333333,NA,20,describePicture
218,8073,20,NA,,graduated_high_school,1542399867987,16,white,male,Mandarin Chinese,NA,13,49,@几个@,,,NA,Fri Nov 16 2018 10:25:45 GMT-0800 (Pacific Standard Time),1542392745580,118.70678333333333,NA,21,describePicture
218,10686,20,NA,,graduated_high_school,1542399867987,16,black,male,Mandarin Chinese,NA,2,49,@两个@,@很少@,,NA,Fri Nov 16 2018 10:25:45 GMT-0800 (Pacific Standard Time),1542392745580,118.70678333333333,NA,22,describePicture
218,13558,20,NA,,graduated_high_school,1542399867987,16,black,male,Mandarin Chinese,NA,9,10,@九个@,@很多@,,NA,Fri Nov 16 2018 10:25:45 GMT-0800 (Pacific Standard Time),1542392745580,118.70678333333333,NA,23,describePicture
218,15224,20,NA,,graduated_high_school,1542399867987,16,black,male,Mandarin Chinese,NA,27,49,@半对半@,,,NA,Fri Nov 16 2018 10:25:45 GMT-0800 (Pacific Standard Time),1542392745580,118.70678333333333,NA,24,describePicture
218,5200,20,NA,,graduated_high_school,1542399867987,16,black,male,Mandarin Chinese,NA,9,49,@几个@,,,NA,Fri Nov 16 2018 10:25:45 GMT-0800 (Pacific Standard Time),1542392745580,118.70678333333333,NA,25,describePicture
218,8941,20,false,,graduated_high_school,1542399867987,16,white,male,Mandarin Chinese,NA,9,10,NA,NA,NA,@一个@,Fri Nov 16 2018 10:25:45 GMT-0800 (Pacific Standard Time),1542392745580,118.70678333333333,NA,1,truthValueJudgement
218,6012,20,false,,graduated_high_school,1542399867987,16,white,male,Mandarin Chinese,NA,9,10,NA,NA,NA,@一个@,Fri Nov 16 2018 10:25:45 GMT-0800 (Pacific Standard Time),1542392745580,118.70678333333333,NA,2,truthValueJudgement
218,5498,20,true,,graduated_high_school,1542399867987,16,white,male,Mandarin Chinese,NA,1,10,NA,NA,NA,@一个@,Fri Nov 16 2018 10:25:45 GMT-0800 (Pacific Standard Time),1542392745580,118.70678333333333,NA,3,truthValueJudgement
218,2323,20,true,,graduated_high_school,1542399867987,16,white,male,Mandarin Chinese,NA,1,10,NA,NA,NA,@一个@,Fri Nov 16 2018 10:25:45 GMT-0800 (Pacific Standard Time),1542392745580,118.70678333333333,NA,4,truthValueJudgement
218,1390,20,false,,graduated_high_school,1542399867987,16,white,male,Mandarin Chinese,NA,6,10,NA,NA,NA,@一个@,Fri Nov 16 2018 10:25:45 GMT-0800 (Pacific Standard Time),1542392745580,118.70678333333333,NA,5,truthValueJudgement
218,3669,20,false,,graduated_high_school,1542399867987,16,white,male,Mandarin Chinese,NA,0,10,NA,NA,NA,只有@一个@,Fri Nov 16 2018 10:25:45 GMT-0800 (Pacific Standard Time),1542392745580,118.70678333333333,NA,6,truthValueJudgement
218,1445,20,false,,graduated_high_school,1542399867987,16,white,male,Mandarin Chinese,NA,0,10,NA,NA,NA,只有@一个@,Fri Nov 16 2018 10:25:45 GMT-0800 (Pacific Standard Time),1542392745580,118.70678333333333,NA,7,truthValueJudgement
218,1686,20,false,,graduated_high_school,1542399867987,16,white,male,Mandarin Chinese,NA,2,10,NA,NA,NA,只有@一个@,Fri Nov 16 2018 10:25:45 GMT-0800 (Pacific Standard Time),1542392745580,118.70678333333333,NA,8,truthValueJudgement
218,1310,20,false,,graduated_high_school,1542399867987,16,white,male,Mandarin Chinese,NA,9,10,NA,NA,NA,只有@一个@,Fri Nov 16 2018 10:25:45 GMT-0800 (Pacific Standard Time),1542392745580,118.70678333333333,NA,9,truthValueJudgement
218,1214,20,true,,graduated_high_school,1542399867987,16,white,male,Mandarin Chinese,NA,1,10,NA,NA,NA,只有@一个@,Fri Nov 16 2018 10:25:45 GMT-0800 (Pacific Standard Time),1542392745580,118.70678333333333,NA,10,truthValueJudgement
218,4334,20,false,,graduated_high_school,1542399867987,16,white,male,Mandarin Chinese,NA,10,10,NA,NA,NA,@一@,Fri Nov 16 2018 10:25:45 GMT-0800 (Pacific Standard Time),1542392745580,118.70678333333333,NA,11,truthValueJudgement
218,2543,20,false,,graduated_high_school,1542399867987,16,white,male,Mandarin Chinese,NA,8,10,NA,NA,NA,@一@,Fri Nov 16 2018 10:25:45 GMT-0800 (Pacific Standard Time),1542392745580,118.70678333333333,NA,12,truthValueJudgement
218,1149,20,true,,graduated_high_school,1542399867987,16,white,male,Mandarin Chinese,NA,1,10,NA,NA,NA,@一@,Fri Nov 16 2018 10:25:45 GMT-0800 (Pacific Standard Time),1542392745580,118.70678333333333,NA,13,truthValueJudgement
218,1239,20,false,,graduated_high_school,1542399867987,16,white,male,Mandarin Chinese,NA,2,10,NA,NA,NA,@一@,Fri Nov 16 2018 10:25:45 GMT-0800 (Pacific Standard Time),1542392745580,118.70678333333333,NA,14,truthValueJudgement
218,997,20,true,,graduated_high_school,1542399867987,16,white,male,Mandarin Chinese,NA,1,10,NA,NA,NA,@一@,Fri Nov 16 2018 10:25:45 GMT-0800 (Pacific Standard Time),1542392745580,118.70678333333333,NA,15,truthValueJudgement
218,2033,20,true,,graduated_high_school,1542399867987,16,white,male,Mandarin Chinese,NA,35,49,NA,NA,NA,@很多@,Fri Nov 16 2018 10:25:45 GMT-0800 (Pacific Standard Time),1542392745580,118.70678333333333,NA,16,truthValueJudgement
218,2821,20,true,,graduated_high_school,1542399867987,16,white,male,Mandarin Chinese,NA,34,49,NA,NA,NA,@很多@,Fri Nov 16 2018 10:25:45 GMT-0800 (Pacific Standard Time),1542392745580,118.70678333333333,NA,17,truthValueJudgement
218,1835,20,false,,graduated_high_school,1542399867987,16,white,male,Mandarin Chinese,NA,10,49,NA,NA,NA,@很多@,Fri Nov 16 2018 10:25:45 GMT-0800 (Pacific Standard Time),1542392745580,118.70678333333333,NA,18,truthValueJudgement
218,974,20,false,,graduated_high_school,1542399867987,16,white,male,Mandarin Chinese,NA,3,49,NA,NA,NA,@很多@,Fri Nov 16 2018 10:25:45 GMT-0800 (Pacific Standard Time),1542392745580,118.70678333333333,NA,19,truthValueJudgement
218,3653,20,false,,graduated_high_school,1542399867987,16,white,male,Mandarin Chinese,NA,18,49,NA,NA,NA,@很多@,Fri Nov 16 2018 10:25:45 GMT-0800 (Pacific Standard Time),1542392745580,118.70678333333333,NA,20,truthValueJudgement
218,2588,20,false,,graduated_high_school,1542399867987,16,white,male,Mandarin Chinese,NA,48,49,NA,NA,NA,@全@都是,Fri Nov 16 2018 10:25:45 GMT-0800 (Pacific Standard Time),1542392745580,118.70678333333333,NA,21,truthValueJudgement
218,1526,20,true,,graduated_high_school,1542399867987,16,white,male,Mandarin Chinese,NA,49,49,NA,NA,NA,@全@都是,Fri Nov 16 2018 10:25:45 GMT-0800 (Pacific Standard Time),1542392745580,118.70678333333333,NA,22,truthValueJudgement
218,1214,20,true,,graduated_high_school,1542399867987,16,white,male,Mandarin Chinese,NA,49,49,NA,NA,NA,@全@都是,Fri Nov 16 2018 10:25:45 GMT-0800 (Pacific Standard Time),1542392745580,118.70678333333333,NA,23,truthValueJudgement
218,963,20,false,,graduated_high_school,1542399867987,16,white,male,Mandarin Chinese,NA,7,49,NA,NA,NA,@全@都是,Fri Nov 16 2018 10:25:45 GMT-0800 (Pacific Standard Time),1542392745580,118.70678333333333,NA,24,truthValueJudgement
218,3824,20,false,,graduated_high_school,1542399867987,16,white,male,Mandarin Chinese,NA,1,49,NA,NA,NA,@全@都是,Fri Nov 16 2018 10:25:45 GMT-0800 (Pacific Standard Time),1542392745580,118.70678333333333,NA,25,truthValueJudgement
218,7525,20,false,,graduated_high_school,1542399867987,16,black,male,Mandarin Chinese,NA,9,10,NA,NA,NA,@两@个黑的,Fri Nov 16 2018 10:25:45 GMT-0800 (Pacific Standard Time),1542392745580,118.70678333333333,NA,26,truthValueJudgement
218,1055,20,true,,graduated_high_school,1542399867987,16,black,male,Mandarin Chinese,NA,2,10,NA,NA,NA,@两@个黑的,Fri Nov 16 2018 10:25:45 GMT-0800 (Pacific Standard Time),1542392745580,118.70678333333333,NA,27,truthValueJudgement
218,1030,20,true,,graduated_high_school,1542399867987,16,black,male,Mandarin Chinese,NA,2,10,NA,NA,NA,@两@个黑的,Fri Nov 16 2018 10:25:45 GMT-0800 (Pacific Standard Time),1542392745580,118.70678333333333,NA,28,truthValueJudgement
218,935,20,false,,graduated_high_school,1542399867987,16,black,male,Mandarin Chinese,NA,9,10,NA,NA,NA,@两@个黑的,Fri Nov 16 2018 10:25:45 GMT-0800 (Pacific Standard Time),1542392745580,118.70678333333333,NA,29,truthValueJudgement
218,1998,20,false,,graduated_high_school,1542399867987,16,black,male,Mandarin Chinese,NA,10,10,NA,NA,NA,@两@个黑的,Fri Nov 16 2018 10:25:45 GMT-0800 (Pacific Standard Time),1542392745580,118.70678333333333,NA,30,truthValueJudgement
218,4603,20,true,,graduated_high_school,1542399867987,16,black,male,Mandarin Chinese,NA,24,49,NA,NA,NA,百分之@五十@,Fri Nov 16 2018 10:25:45 GMT-0800 (Pacific Standard Time),1542392745580,118.70678333333333,NA,31,truthValueJudgement
218,1166,20,false,,graduated_high_school,1542399867987,16,black,male,Mandarin Chinese,NA,41,49,NA,NA,NA,百分之@五十@,Fri Nov 16 2018 10:25:45 GMT-0800 (Pacific Standard Time),1542392745580,118.70678333333333,NA,32,truthValueJudgement
218,972,20,false,,graduated_high_school,1542399867987,16,black,male,Mandarin Chinese,NA,45,49,NA,NA,NA,百分之@五十@,Fri Nov 16 2018 10:25:45 GMT-0800 (Pacific Standard Time),1542392745580,118.70678333333333,NA,33,truthValueJudgement
218,927,20,false,,graduated_high_school,1542399867987,16,black,male,Mandarin Chinese,NA,44,49,NA,NA,NA,百分之@五十@,Fri Nov 16 2018 10:25:45 GMT-0800 (Pacific Standard Time),1542392745580,118.70678333333333,NA,34,truthValueJudgement
218,949,20,true,,graduated_high_school,1542399867987,16,black,male,Mandarin Chinese,NA,22,49,NA,NA,NA,百分之@五十@,Fri Nov 16 2018 10:25:45 GMT-0800 (Pacific Standard Time),1542392745580,118.70678333333333,NA,35,truthValueJudgement
218,2880,20,false,,graduated_high_school,1542399867987,16,black,male,Mandarin Chinese,NA,49,49,NA,NA,NA,@半个@,Fri Nov 16 2018 10:25:45 GMT-0800 (Pacific Standard Time),1542392745580,118.70678333333333,NA,36,truthValueJudgement
218,1134,20,false,,graduated_high_school,1542399867987,16,black,male,Mandarin Chinese,NA,2,49,NA,NA,NA,@半个@,Fri Nov 16 2018 10:25:45 GMT-0800 (Pacific Standard Time),1542392745580,118.70678333333333,NA,37,truthValueJudgement
218,1564,20,true,,graduated_high_school,1542399867987,16,black,male,Mandarin Chinese,NA,34,49,NA,NA,NA,@半个@,Fri Nov 16 2018 10:25:45 GMT-0800 (Pacific Standard Time),1542392745580,118.70678333333333,NA,38,truthValueJudgement
218,1014,20,false,,graduated_high_school,1542399867987,16,black,male,Mandarin Chinese,NA,1,49,NA,NA,NA,@半个@,Fri Nov 16 2018 10:25:45 GMT-0800 (Pacific Standard Time),1542392745580,118.70678333333333,NA,39,truthValueJudgement
218,2584,20,false,,graduated_high_school,1542399867987,16,black,male,Mandarin Chinese,NA,38,49,NA,NA,NA,@半个@,Fri Nov 16 2018 10:25:45 GMT-0800 (Pacific Standard Time),1542392745580,118.70678333333333,NA,40,truthValueJudgement
218,2053,20,true,,graduated_high_school,1542399867987,16,black,male,Mandarin Chinese,NA,8,10,NA,NA,NA,@大多数@是黑的,Fri Nov 16 2018 10:25:45 GMT-0800 (Pacific Standard Time),1542392745580,118.70678333333333,NA,41,truthValueJudgement
218,2174,20,false,,graduated_high_school,1542399867987,16,black,male,Mandarin Chinese,NA,0,10,NA,NA,NA,@大多数@是黑的,Fri Nov 16 2018 10:25:45 GMT-0800 (Pacific Standard Time),1542392745580,118.70678333333333,NA,42,truthValueJudgement
218,2911,20,false,,graduated_high_school,1542399867987,16,black,male,Mandarin Chinese,NA,0,10,NA,NA,NA,@大多数@是黑的,Fri Nov 16 2018 10:25:45 GMT-0800 (Pacific Standard Time),1542392745580,118.70678333333333,NA,43,truthValueJudgement
218,870,20,false,,graduated_high_school,1542399867987,16,black,male,Mandarin Chinese,NA,0,10,NA,NA,NA,@大多数@是黑的,Fri Nov 16 2018 10:25:45 GMT-0800 (Pacific Standard Time),1542392745580,118.70678333333333,NA,44,truthValueJudgement
218,797,20,false,,graduated_high_school,1542399867987,16,black,male,Mandarin Chinese,NA,0,10,NA,NA,NA,@大多数@是黑的,Fri Nov 16 2018 10:25:45 GMT-0800 (Pacific Standard Time),1542392745580,118.70678333333333,NA,45,truthValueJudgement
218,3191,20,true,,graduated_high_school,1542399867987,16,black,male,Mandarin Chinese,NA,8,10,NA,NA,NA,@八个@黑的,Fri Nov 16 2018 10:25:45 GMT-0800 (Pacific Standard Time),1542392745580,118.70678333333333,NA,46,truthValueJudgement
218,1142,20,false,,graduated_high_school,1542399867987,16,black,male,Mandarin Chinese,NA,0,10,NA,NA,NA,@八个@黑的,Fri Nov 16 2018 10:25:45 GMT-0800 (Pacific Standard Time),1542392745580,118.70678333333333,NA,47,truthValueJudgement
218,4686,20,true,,graduated_high_school,1542399867987,16,black,male,Mandarin Chinese,NA,8,10,NA,NA,NA,@八个@黑的,Fri Nov 16 2018 10:25:45 GMT-0800 (Pacific Standard Time),1542392745580,118.70678333333333,NA,48,truthValueJudgement
218,942,20,false,,graduated_high_school,1542399867987,16,black,male,Mandarin Chinese,NA,0,10,NA,NA,NA,@八个@黑的,Fri Nov 16 2018 10:25:45 GMT-0800 (Pacific Standard Time),1542392745580,118.70678333333333,NA,49,truthValueJudgement
218,992,20,false,,graduated_high_school,1542399867987,16,black,male,Mandarin Chinese,NA,0,10,NA,NA,NA,@八个@黑的,Fri Nov 16 2018 10:25:45 GMT-0800 (Pacific Standard Time),1542392745580,118.70678333333333,NA,50,truthValueJudgement
218,1799,20,true,,graduated_high_school,1542399867987,16,white,male,Mandarin Chinese,NA,3,10,NA,NA,NA,@三个@百的,Fri Nov 16 2018 10:25:45 GMT-0800 (Pacific Standard Time),1542392745580,118.70678333333333,NA,51,truthValueJudgement
218,958,20,true,,graduated_high_school,1542399867987,16,white,male,Mandarin Chinese,NA,3,10,NA,NA,NA,@三个@百的,Fri Nov 16 2018 10:25:45 GMT-0800 (Pacific Standard Time),1542392745580,118.70678333333333,NA,52,truthValueJudgement
218,895,20,true,,graduated_high_school,1542399867987,16,white,male,Mandarin Chinese,NA,3,10,NA,NA,NA,@三个@百的,Fri Nov 16 2018 10:25:45 GMT-0800 (Pacific Standard Time),1542392745580,118.70678333333333,NA,53,truthValueJudgement
218,974,20,false,,graduated_high_school,1542399867987,16,white,male,Mandarin Chinese,NA,10,10,NA,NA,NA,@三个@百的,Fri Nov 16 2018 10:25:45 GMT-0800 (Pacific Standard Time),1542392745580,118.70678333333333,NA,54,truthValueJudgement
218,855,20,false,,graduated_high_school,1542399867987,16,white,male,Mandarin Chinese,NA,10,10,NA,NA,NA,@三个@百的,Fri Nov 16 2018 10:25:45 GMT-0800 (Pacific Standard Time),1542392745580,118.70678333333333,NA,55,truthValueJudgement
218,1862,20,false,,graduated_high_school,1542399867987,16,white,male,Mandarin Chinese,NA,10,10,NA,NA,NA,@没有@白的,Fri Nov 16 2018 10:25:45 GMT-0800 (Pacific Standard Time),1542392745580,118.70678333333333,NA,56,truthValueJudgement
218,862,20,false,,graduated_high_school,1542399867987,16,white,male,Mandarin Chinese,NA,10,10,NA,NA,NA,@没有@白的,Fri Nov 16 2018 10:25:45 GMT-0800 (Pacific Standard Time),1542392745580,118.70678333333333,NA,57,truthValueJudgement
218,853,20,true,,graduated_high_school,1542399867987,16,white,male,Mandarin Chinese,NA,0,10,NA,NA,NA,@没有@白的,Fri Nov 16 2018 10:25:45 GMT-0800 (Pacific Standard Time),1542392745580,118.70678333333333,NA,58,truthValueJudgement
218,750,20,true,,graduated_high_school,1542399867987,16,white,male,Mandarin Chinese,NA,1,10,NA,NA,NA,@没有@白的,Fri Nov 16 2018 10:25:45 GMT-0800 (Pacific Standard Time),1542392745580,118.70678333333333,NA,59,truthValueJudgement
218,775,20,true,,graduated_high_school,1542399867987,16,white,male,Mandarin Chinese,NA,0,10,NA,NA,NA,@没有@白的,Fri Nov 16 2018 10:25:45 GMT-0800 (Pacific Standard Time),1542392745580,118.70678333333333,NA,60,truthValueJudgement
218,2590,20,false,,graduated_high_school,1542399867987,16,white,male,Mandarin Chinese,NA,10,10,NA,NA,NA,@零@个,Fri Nov 16 2018 10:25:45 GMT-0800 (Pacific Standard Time),1542392745580,118.70678333333333,NA,61,truthValueJudgement
218,766,20,false,,graduated_high_school,1542399867987,16,white,male,Mandarin Chinese,NA,10,10,NA,NA,NA,@零@个,Fri Nov 16 2018 10:25:45 GMT-0800 (Pacific Standard Time),1542392745580,118.70678333333333,NA,62,truthValueJudgement
218,845,20,true,,graduated_high_school,1542399867987,16,white,male,Mandarin Chinese,NA,0,10,NA,NA,NA,@零@个,Fri Nov 16 2018 10:25:45 GMT-0800 (Pacific Standard Time),1542392745580,118.70678333333333,NA,63,truthValueJudgement
218,750,20,true,,graduated_high_school,1542399867987,16,white,male,Mandarin Chinese,NA,0,10,NA,NA,NA,@零@个,Fri Nov 16 2018 10:25:45 GMT-0800 (Pacific Standard Time),1542392745580,118.70678333333333,NA,64,truthValueJudgement
218,774,20,false,,graduated_high_school,1542399867987,16,white,male,Mandarin Chinese,NA,10,10,NA,NA,NA,@零@个,Fri Nov 16 2018 10:25:45 GMT-0800 (Pacific Standard Time),1542392745580,118.70678333333333,NA,65,truthValueJudgement
218,3181,20,true,,graduated_high_school,1542399867987,16,black,male,Mandarin Chinese,NA,40,49,NA,NA,NA,@大多@数,Fri Nov 16 2018 10:25:45 GMT-0800 (Pacific Standard Time),1542392745580,118.70678333333333,NA,66,truthValueJudgement
218,1029,20,false,,graduated_high_school,1542399867987,16,black,male,Mandarin Chinese,NA,19,49,NA,NA,NA,@大多@数,Fri Nov 16 2018 10:25:45 GMT-0800 (Pacific Standard Time),1542392745580,118.70678333333333,NA,67,truthValueJudgement
218,15570,20,false,,graduated_high_school,1542399867987,16,black,male,Mandarin Chinese,NA,0,49,NA,NA,NA,@大多@数,Fri Nov 16 2018 10:25:45 GMT-0800 (Pacific Standard Time),1542392745580,118.70678333333333,NA,68,truthValueJudgement
218,912,20,false,,graduated_high_school,1542399867987,16,black,male,Mandarin Chinese,NA,18,49,NA,NA,NA,@大多@数,Fri Nov 16 2018 10:25:45 GMT-0800 (Pacific Standard Time),1542392745580,118.70678333333333,NA,69,truthValueJudgement
218,1245,20,true,,graduated_high_school,1542399867987,16,black,male,Mandarin Chinese,NA,41,49,NA,NA,NA,@大多@数,Fri Nov 16 2018 10:25:45 GMT-0800 (Pacific Standard Time),1542392745580,118.70678333333333,NA,70,truthValueJudgement
218,2347,20,true,,graduated_high_school,1542399867987,16,black,male,Mandarin Chinese,NA,39,49,NA,NA,NA,@很多@黑的,Fri Nov 16 2018 10:25:45 GMT-0800 (Pacific Standard Time),1542392745580,118.70678333333333,NA,71,truthValueJudgement
218,822,20,true,,graduated_high_school,1542399867987,16,black,male,Mandarin Chinese,NA,31,49,NA,NA,NA,@很多@黑的,Fri Nov 16 2018 10:25:45 GMT-0800 (Pacific Standard Time),1542392745580,118.70678333333333,NA,72,truthValueJudgement
218,718,20,true,,graduated_high_school,1542399867987,16,black,male,Mandarin Chinese,NA,32,49,NA,NA,NA,@很多@黑的,Fri Nov 16 2018 10:25:45 GMT-0800 (Pacific Standard Time),1542392745580,118.70678333333333,NA,73,truthValueJudgement
218,693,20,true,,graduated_high_school,1542399867987,16,black,male,Mandarin Chinese,NA,38,49,NA,NA,NA,@很多@黑的,Fri Nov 16 2018 10:25:45 GMT-0800 (Pacific Standard Time),1542392745580,118.70678333333333,NA,74,truthValueJudgement
218,790,20,true,,graduated_high_school,1542399867987,16,black,male,Mandarin Chinese,NA,28,49,NA,NA,NA,@很多@黑的,Fri Nov 16 2018 10:25:45 GMT-0800 (Pacific Standard Time),1542392745580,118.70678333333333,NA,75,truthValueJudgement
218,2719,20,true,,graduated_high_school,1542399867987,16,white,male,Mandarin Chinese,NA,6,10,NA,NA,NA,@六个@白的,Fri Nov 16 2018 10:25:45 GMT-0800 (Pacific Standard Time),1542392745580,118.70678333333333,NA,76,truthValueJudgement
218,5128,20,true,,graduated_high_school,1542399867987,16,white,male,Mandarin Chinese,NA,6,10,NA,NA,NA,@六个@白的,Fri Nov 16 2018 10:25:45 GMT-0800 (Pacific Standard Time),1542392745580,118.70678333333333,NA,77,truthValueJudgement
218,3478,20,false,,graduated_high_school,1542399867987,16,white,male,Mandarin Chinese,NA,7,10,NA,NA,NA,@六个@白的,Fri Nov 16 2018 10:25:45 GMT-0800 (Pacific Standard Time),1542392745580,118.70678333333333,NA,78,truthValueJudgement
218,2319,20,false,,graduated_high_school,1542399867987,16,white,male,Mandarin Chinese,NA,7,10,NA,NA,NA,@六个@白的,Fri Nov 16 2018 10:25:45 GMT-0800 (Pacific Standard Time),1542392745580,118.70678333333333,NA,79,truthValueJudgement
218,2925,20,true,,graduated_high_school,1542399867987,16,white,male,Mandarin Chinese,NA,6,10,NA,NA,NA,@六个@白的,Fri Nov 16 2018 10:25:45 GMT-0800 (Pacific Standard Time),1542392745580,118.70678333333333,NA,80,truthValueJudgement
218,2927,20,true,,graduated_high_school,1542399867987,16,black,male,Mandarin Chinese,NA,4,10,NA,NA,NA,@四个@黑的,Fri Nov 16 2018 10:25:45 GMT-0800 (Pacific Standard Time),1542392745580,118.70678333333333,NA,81,truthValueJudgement
218,981,20,true,,graduated_high_school,1542399867987,16,black,male,Mandarin Chinese,NA,4,10,NA,NA,NA,@四个@黑的,Fri Nov 16 2018 10:25:45 GMT-0800 (Pacific Standard Time),1542392745580,118.70678333333333,NA,82,truthValueJudgement
218,911,20,true,,graduated_high_school,1542399867987,16,black,male,Mandarin Chinese,NA,4,10,NA,NA,NA,@四个@黑的,Fri Nov 16 2018 10:25:45 GMT-0800 (Pacific Standard Time),1542392745580,118.70678333333333,NA,83,truthValueJudgement
218,949,20,true,,graduated_high_school,1542399867987,16,black,male,Mandarin Chinese,NA,5,10,NA,NA,NA,@四个@黑的,Fri Nov 16 2018 10:25:45 GMT-0800 (Pacific Standard Time),1542392745580,118.70678333333333,NA,84,truthValueJudgement
218,5158,20,false,,graduated_high_school,1542399867987,16,black,male,Mandarin Chinese,NA,0,10,NA,NA,NA,@四个@黑的,Fri Nov 16 2018 10:25:45 GMT-0800 (Pacific Standard Time),1542392745580,118.70678333333333,NA,85,truthValueJudgement
218,4869,20,true,,graduated_high_school,1542399867987,16,black,male,Mandarin Chinese,NA,2,10,NA,NA,NA,@一些@黑的,Fri Nov 16 2018 10:25:45 GMT-0800 (Pacific Standard Time),1542392745580,118.70678333333333,NA,86,truthValueJudgement
218,1246,20,true,,graduated_high_school,1542399867987,16,black,male,Mandarin Chinese,NA,6,10,NA,NA,NA,@一些@黑的,Fri Nov 16 2018 10:25:45 GMT-0800 (Pacific Standard Time),1542392745580,118.70678333333333,NA,87,truthValueJudgement
218,1615,20,true,,graduated_high_school,1542399867987,16,black,male,Mandarin Chinese,NA,2,10,NA,NA,NA,@一些@黑的,Fri Nov 16 2018 10:25:45 GMT-0800 (Pacific Standard Time),1542392745580,118.70678333333333,NA,88,truthValueJudgement
218,1437,20,true,,graduated_high_school,1542399867987,16,black,male,Mandarin Chinese,NA,6,10,NA,NA,NA,@一些@黑的,Fri Nov 16 2018 10:25:45 GMT-0800 (Pacific Standard Time),1542392745580,118.70678333333333,NA,89,truthValueJudgement
218,1551,20,false,,graduated_high_school,1542399867987,16,black,male,Mandarin Chinese,NA,10,10,NA,NA,NA,@一些@黑的,Fri Nov 16 2018 10:25:45 GMT-0800 (Pacific Standard Time),1542392745580,118.70678333333333,NA,90,truthValueJudgement
218,3697,20,false,,graduated_high_school,1542399867987,16,black,male,Mandarin Chinese,NA,27,49,NA,NA,NA,@大多数@,Fri Nov 16 2018 10:25:45 GMT-0800 (Pacific Standard Time),1542392745580,118.70678333333333,NA,91,truthValueJudgement
218,1214,20,false,,graduated_high_school,1542399867987,16,black,male,Mandarin Chinese,NA,26,49,NA,NA,NA,@大多数@,Fri Nov 16 2018 10:25:45 GMT-0800 (Pacific Standard Time),1542392745580,118.70678333333333,NA,92,truthValueJudgement
218,2773,20,false,,graduated_high_school,1542399867987,16,black,male,Mandarin Chinese,NA,28,49,NA,NA,NA,@大多数@,Fri Nov 16 2018 10:25:45 GMT-0800 (Pacific Standard Time),1542392745580,118.70678333333333,NA,93,truthValueJudgement
218,1332,20,false,,graduated_high_school,1542399867987,16,black,male,Mandarin Chinese,NA,9,49,NA,NA,NA,@大多数@,Fri Nov 16 2018 10:25:45 GMT-0800 (Pacific Standard Time),1542392745580,118.70678333333333,NA,94,truthValueJudgement
218,950,20,false,,graduated_high_school,1542399867987,16,black,male,Mandarin Chinese,NA,19,49,NA,NA,NA,@大多数@,Fri Nov 16 2018 10:25:45 GMT-0800 (Pacific Standard Time),1542392745580,118.70678333333333,NA,95,truthValueJudgement
218,2218,20,false,,graduated_high_school,1542399867987,16,black,male,Mandarin Chinese,NA,49,49,NA,NA,NA,@半@对@半@,Fri Nov 16 2018 10:25:45 GMT-0800 (Pacific Standard Time),1542392745580,118.70678333333333,NA,96,truthValueJudgement
218,1807,20,false,,graduated_high_school,1542399867987,16,black,male,Mandarin Chinese,NA,49,49,NA,NA,NA,@半@对@半@,Fri Nov 16 2018 10:25:45 GMT-0800 (Pacific Standard Time),1542392745580,118.70678333333333,NA,97,truthValueJudgement
218,1139,20,false,,graduated_high_school,1542399867987,16,black,male,Mandarin Chinese,NA,6,49,NA,NA,NA,@半@对@半@,Fri Nov 16 2018 10:25:45 GMT-0800 (Pacific Standard Time),1542392745580,118.70678333333333,NA,98,truthValueJudgement
218,2223,20,true,,graduated_high_school,1542399867987,16,black,male,Mandarin Chinese,NA,14,49,NA,NA,NA,@半@对@半@,Fri Nov 16 2018 10:25:45 GMT-0800 (Pacific Standard Time),1542392745580,118.70678333333333,NA,99,truthValueJudgement
218,921,20,true,,graduated_high_school,1542399867987,16,black,male,Mandarin Chinese,NA,22,49,NA,NA,NA,@半@对@半@,Fri Nov 16 2018 10:25:45 GMT-0800 (Pacific Standard Time),1542392745580,118.70678333333333,NA,100,truthValueJudgement
218,2626,20,false,,graduated_high_school,1542399867987,16,black,male,Mandarin Chinese,NA,16,49,NA,NA,NA,@挺多@的,Fri Nov 16 2018 10:25:45 GMT-0800 (Pacific Standard Time),1542392745580,118.70678333333333,NA,101,truthValueJudgement
218,826,20,false,,graduated_high_school,1542399867987,16,black,male,Mandarin Chinese,NA,12,49,NA,NA,NA,@挺多@的,Fri Nov 16 2018 10:25:45 GMT-0800 (Pacific Standard Time),1542392745580,118.70678333333333,NA,102,truthValueJudgement
218,866,20,true,,graduated_high_school,1542399867987,16,black,male,Mandarin Chinese,NA,28,49,NA,NA,NA,@挺多@的,Fri Nov 16 2018 10:25:45 GMT-0800 (Pacific Standard Time),1542392745580,118.70678333333333,NA,103,truthValueJudgement
218,970,20,false,,graduated_high_school,1542399867987,16,black,male,Mandarin Chinese,NA,20,49,NA,NA,NA,@挺多@的,Fri Nov 16 2018 10:25:45 GMT-0800 (Pacific Standard Time),1542392745580,118.70678333333333,NA,104,truthValueJudgement
218,810,20,true,,graduated_high_school,1542399867987,16,black,male,Mandarin Chinese,NA,30,49,NA,NA,NA,@挺多@的,Fri Nov 16 2018 10:25:45 GMT-0800 (Pacific Standard Time),1542392745580,118.70678333333333,NA,105,truthValueJudgement
218,1638,20,false,,graduated_high_school,1542399867987,16,black,male,Mandarin Chinese,NA,5,10,NA,NA,NA,@全是@黑的,Fri Nov 16 2018 10:25:45 GMT-0800 (Pacific Standard Time),1542392745580,118.70678333333333,NA,106,truthValueJudgement
218,949,20,false,,graduated_high_school,1542399867987,16,black,male,Mandarin Chinese,NA,9,10,NA,NA,NA,@全是@黑的,Fri Nov 16 2018 10:25:45 GMT-0800 (Pacific Standard Time),1542392745580,118.70678333333333,NA,107,truthValueJudgement
218,1535,20,false,,graduated_high_school,1542399867987,16,black,male,Mandarin Chinese,NA,7,10,NA,NA,NA,@全是@黑的,Fri Nov 16 2018 10:25:45 GMT-0800 (Pacific Standard Time),1542392745580,118.70678333333333,NA,108,truthValueJudgement
218,814,20,false,,graduated_high_school,1542399867987,16,black,male,Mandarin Chinese,NA,9,10,NA,NA,NA,@全是@黑的,Fri Nov 16 2018 10:25:45 GMT-0800 (Pacific Standard Time),1542392745580,118.70678333333333,NA,109,truthValueJudgement
218,1551,20,false,,graduated_high_school,1542399867987,16,black,male,Mandarin Chinese,NA,2,10,NA,NA,NA,@全是@黑的,Fri Nov 16 2018 10:25:45 GMT-0800 (Pacific Standard Time),1542392745580,118.70678333333333,NA,110,truthValueJudgement
218,7198,20,false,,graduated_high_school,1542399867987,16,black,male,Mandarin Chinese,NA,9,10,NA,NA,NA,@十个@黑的,Fri Nov 16 2018 10:25:45 GMT-0800 (Pacific Standard Time),1542392745580,118.70678333333333,NA,111,truthValueJudgement
218,2535,20,true,,graduated_high_school,1542399867987,16,black,male,Mandarin Chinese,NA,10,10,NA,NA,NA,@十个@黑的,Fri Nov 16 2018 10:25:45 GMT-0800 (Pacific Standard Time),1542392745580,118.70678333333333,NA,112,truthValueJudgement
218,2021,20,false,,graduated_high_school,1542399867987,16,black,male,Mandarin Chinese,NA,6,10,NA,NA,NA,@十个@黑的,Fri Nov 16 2018 10:25:45 GMT-0800 (Pacific Standard Time),1542392745580,118.70678333333333,NA,113,truthValueJudgement
218,1325,20,false,,graduated_high_school,1542399867987,16,black,male,Mandarin Chinese,NA,3,10,NA,NA,NA,@十个@黑的,Fri Nov 16 2018 10:25:45 GMT-0800 (Pacific Standard Time),1542392745580,118.70678333333333,NA,114,truthValueJudgement
218,742,20,false,,graduated_high_school,1542399867987,16,black,male,Mandarin Chinese,NA,2,10,NA,NA,NA,@十个@黑的,Fri Nov 16 2018 10:25:45 GMT-0800 (Pacific Standard Time),1542392745580,118.70678333333333,NA,115,truthValueJudgement
218,3469,20,true,,graduated_high_school,1542399867987,16,black,male,Mandarin Chinese,NA,32,49,NA,NA,NA,@挺多@黑的,Fri Nov 16 2018 10:25:45 GMT-0800 (Pacific Standard Time),1542392745580,118.70678333333333,NA,116,truthValueJudgement
218,718,20,true,,graduated_high_school,1542399867987,16,black,male,Mandarin Chinese,NA,32,49,NA,NA,NA,@挺多@黑的,Fri Nov 16 2018 10:25:45 GMT-0800 (Pacific Standard Time),1542392745580,118.70678333333333,NA,117,truthValueJudgement
218,999,20,false,,graduated_high_school,1542399867987,16,black,male,Mandarin Chinese,NA,13,49,NA,NA,NA,@挺多@黑的,Fri Nov 16 2018 10:25:45 GMT-0800 (Pacific Standard Time),1542392745580,118.70678333333333,NA,118,truthValueJudgement
218,809,20,false,,graduated_high_school,1542399867987,16,black,male,Mandarin Chinese,NA,22,49,NA,NA,NA,@挺多@黑的,Fri Nov 16 2018 10:25:45 GMT-0800 (Pacific Standard Time),1542392745580,118.70678333333333,NA,119,truthValueJudgement
218,719,20,false,,graduated_high_school,1542399867987,16,black,male,Mandarin Chinese,NA,3,49,NA,NA,NA,@挺多@黑的,Fri Nov 16 2018 10:25:45 GMT-0800 (Pacific Standard Time),1542392745580,118.70678333333333,NA,120,truthValueJudgement
218,3448,20,false,,graduated_high_school,1542399867987,16,white,male,Mandarin Chinese,NA,7,10,NA,NA,NA,@五个@,Fri Nov 16 2018 10:25:45 GMT-0800 (Pacific Standard Time),1542392745580,118.70678333333333,NA,121,truthValueJudgement
218,3582,20,false,,graduated_high_school,1542399867987,16,white,male,Mandarin Chinese,NA,8,10,NA,NA,NA,@五个@,Fri Nov 16 2018 10:25:45 GMT-0800 (Pacific Standard Time),1542392745580,118.70678333333333,NA,122,truthValueJudgement
218,1406,20,true,,graduated_high_school,1542399867987,16,white,male,Mandarin Chinese,NA,5,10,NA,NA,NA,@五个@,Fri Nov 16 2018 10:25:45 GMT-0800 (Pacific Standard Time),1542392745580,118.70678333333333,NA,123,truthValueJudgement
218,1438,20,true,,graduated_high_school,1542399867987,16,white,male,Mandarin Chinese,NA,5,10,NA,NA,NA,@五个@,Fri Nov 16 2018 10:25:45 GMT-0800 (Pacific Standard Time),1542392745580,118.70678333333333,NA,124,truthValueJudgement
218,1071,20,false,,graduated_high_school,1542399867987,16,white,male,Mandarin Chinese,NA,10,10,NA,NA,NA,@五个@,Fri Nov 16 2018 10:25:45 GMT-0800 (Pacific Standard Time),1542392745580,118.70678333333333,NA,125,truthValueJudgement
218,1446,20,false,,graduated_high_school,1542399867987,16,white,male,Mandarin Chinese,NA,2,10,NA,NA,NA,@半对半@,Fri Nov 16 2018 10:25:45 GMT-0800 (Pacific Standard Time),1542392745580,118.70678333333333,NA,126,truthValueJudgement
218,829,20,false,,graduated_high_school,1542399867987,16,white,male,Mandarin Chinese,NA,2,10,NA,NA,NA,@半对半@,Fri Nov 16 2018 10:25:45 GMT-0800 (Pacific Standard Time),1542392745580,118.70678333333333,NA,127,truthValueJudgement
218,774,20,false,,graduated_high_school,1542399867987,16,white,male,Mandarin Chinese,NA,2,10,NA,NA,NA,@半对半@,Fri Nov 16 2018 10:25:45 GMT-0800 (Pacific Standard Time),1542392745580,118.70678333333333,NA,128,truthValueJudgement
218,1190,20,false,,graduated_high_school,1542399867987,16,white,male,Mandarin Chinese,NA,7,10,NA,NA,NA,@半对半@,Fri Nov 16 2018 10:25:45 GMT-0800 (Pacific Standard Time),1542392745580,118.70678333333333,NA,129,truthValueJudgement
218,791,20,false,,graduated_high_school,1542399867987,16,white,male,Mandarin Chinese,NA,8,10,NA,NA,NA,@半对半@,Fri Nov 16 2018 10:25:45 GMT-0800 (Pacific Standard Time),1542392745580,118.70678333333333,NA,130,truthValueJudgement
218,2316,20,true,,graduated_high_school,1542399867987,16,black,male,Mandarin Chinese,NA,7,10,NA,NA,NA,@大多数@,Fri Nov 16 2018 10:25:45 GMT-0800 (Pacific Standard Time),1542392745580,118.70678333333333,NA,131,truthValueJudgement
218,871,20,true,,graduated_high_school,1542399867987,16,black,male,Mandarin Chinese,NA,7,10,NA,NA,NA,@大多数@,Fri Nov 16 2018 10:25:45 GMT-0800 (Pacific Standard Time),1542392745580,118.70678333333333,NA,132,truthValueJudgement
218,1022,20,true,,graduated_high_school,1542399867987,16,black,male,Mandarin Chinese,NA,7,10,NA,NA,NA,@大多数@,Fri Nov 16 2018 10:25:45 GMT-0800 (Pacific Standard Time),1542392745580,118.70678333333333,NA,133,truthValueJudgement
218,879,20,false,,graduated_high_school,1542399867987,16,black,male,Mandarin Chinese,NA,1,10,NA,NA,NA,@大多数@,Fri Nov 16 2018 10:25:45 GMT-0800 (Pacific Standard Time),1542392745580,118.70678333333333,NA,134,truthValueJudgement
218,844,20,false,,graduated_high_school,1542399867987,16,black,male,Mandarin Chinese,NA,1,10,NA,NA,NA,@大多数@,Fri Nov 16 2018 10:25:45 GMT-0800 (Pacific Standard Time),1542392745580,118.70678333333333,NA,135,truthValueJudgement
218,3168,20,true,,graduated_high_school,1542399867987,16,black,male,Mandarin Chinese,NA,7,10,NA,NA,NA,@七个@,Fri Nov 16 2018 10:25:45 GMT-0800 (Pacific Standard Time),1542392745580,118.70678333333333,NA,136,truthValueJudgement
218,1830,20,true,,graduated_high_school,1542399867987,16,black,male,Mandarin Chinese,NA,7,10,NA,NA,NA,@七个@,Fri Nov 16 2018 10:25:45 GMT-0800 (Pacific Standard Time),1542392745580,118.70678333333333,NA,137,truthValueJudgement
218,2103,20,true,,graduated_high_school,1542399867987,16,black,male,Mandarin Chinese,NA,7,10,NA,NA,NA,@七个@,Fri Nov 16 2018 10:25:45 GMT-0800 (Pacific Standard Time),1542392745580,118.70678333333333,NA,138,truthValueJudgement
218,2303,20,false,,graduated_high_school,1542399867987,16,black,male,Mandarin Chinese,NA,1,10,NA,NA,NA,@七个@,Fri Nov 16 2018 10:25:45 GMT-0800 (Pacific Standard Time),1542392745580,118.70678333333333,NA,139,truthValueJudgement
218,811,20,false,,graduated_high_school,1542399867987,16,black,male,Mandarin Chinese,NA,1,10,NA,NA,NA,@七个@,Fri Nov 16 2018 10:25:45 GMT-0800 (Pacific Standard Time),1542392745580,118.70678333333333,NA,140,truthValueJudgement
218,2542,20,false,,graduated_high_school,1542399867987,16,black,male,Mandarin Chinese,NA,32,49,NA,NA,NA,除了@一个@@全都@是,Fri Nov 16 2018 10:25:45 GMT-0800 (Pacific Standard Time),1542392745580,118.70678333333333,NA,141,truthValueJudgement
218,5320,20,false,,graduated_high_school,1542399867987,16,black,male,Mandarin Chinese,NA,19,49,NA,NA,NA,除了@一个@@全都@是,Fri Nov 16 2018 10:25:45 GMT-0800 (Pacific Standard Time),1542392745580,118.70678333333333,NA,142,truthValueJudgement
218,4783,20,false,,graduated_high_school,1542399867987,16,black,male,Mandarin Chinese,NA,13,49,NA,NA,NA,除了@一个@@全都@是,Fri Nov 16 2018 10:25:45 GMT-0800 (Pacific Standard Time),1542392745580,118.70678333333333,NA,143,truthValueJudgement
218,706,20,false,,graduated_high_school,1542399867987,16,black,male,Mandarin Chinese,NA,13,49,NA,NA,NA,除了@一个@@全都@是,Fri Nov 16 2018 10:25:45 GMT-0800 (Pacific Standard Time),1542392745580,118.70678333333333,NA,144,truthValueJudgement
218,993,20,false,,graduated_high_school,1542399867987,16,black,male,Mandarin Chinese,NA,40,49,NA,NA,NA,除了@一个@@全都@是,Fri Nov 16 2018 10:25:45 GMT-0800 (Pacific Standard Time),1542392745580,118.70678333333333,NA,145,truthValueJudgement
218,3057,20,false,,graduated_high_school,1542399867987,16,white,male,Mandarin Chinese,NA,0,49,NA,NA,NA,@很少@,Fri Nov 16 2018 10:25:45 GMT-0800 (Pacific Standard Time),1542392745580,118.70678333333333,NA,146,truthValueJudgement
218,1192,20,true,,graduated_high_school,1542399867987,16,white,male,Mandarin Chinese,NA,13,49,NA,NA,NA,@很少@,Fri Nov 16 2018 10:25:45 GMT-0800 (Pacific Standard Time),1542392745580,118.70678333333333,NA,147,truthValueJudgement
218,1129,20,false,,graduated_high_school,1542399867987,16,white,male,Mandarin Chinese,NA,22,49,NA,NA,NA,@很少@,Fri Nov 16 2018 10:25:45 GMT-0800 (Pacific Standard Time),1542392745580,118.70678333333333,NA,148,truthValueJudgement
218,897,20,true,,graduated_high_school,1542399867987,16,white,male,Mandarin Chinese,NA,7,49,NA,NA,NA,@很少@,Fri Nov 16 2018 10:25:45 GMT-0800 (Pacific Standard Time),1542392745580,118.70678333333333,NA,149,truthValueJudgement
218,1009,20,false,,graduated_high_school,1542399867987,16,white,male,Mandarin Chinese,NA,42,49,NA,NA,NA,@很少@,Fri Nov 16 2018 10:25:45 GMT-0800 (Pacific Standard Time),1542392745580,118.70678333333333,NA,150,truthValueJudgement
218,3256,20,false,,graduated_high_school,1542399867987,16,white,male,Mandarin Chinese,NA,27,49,NA,NA,NA,@几个@,Fri Nov 16 2018 10:25:45 GMT-0800 (Pacific Standard Time),1542392745580,118.70678333333333,NA,151,truthValueJudgement
218,682,20,false,,graduated_high_school,1542399867987,16,white,male,Mandarin Chinese,NA,12,49,NA,NA,NA,@几个@,Fri Nov 16 2018 10:25:45 GMT-0800 (Pacific Standard Time),1542392745580,118.70678333333333,NA,152,truthValueJudgement
218,682,20,false,,graduated_high_school,1542399867987,16,white,male,Mandarin Chinese,NA,10,49,NA,NA,NA,@几个@,Fri Nov 16 2018 10:25:45 GMT-0800 (Pacific Standard Time),1542392745580,118.70678333333333,NA,153,truthValueJudgement
218,645,20,false,,graduated_high_school,1542399867987,16,white,male,Mandarin Chinese,NA,14,49,NA,NA,NA,@几个@,Fri Nov 16 2018 10:25:45 GMT-0800 (Pacific Standard Time),1542392745580,118.70678333333333,NA,154,truthValueJudgement
218,678,20,false,,graduated_high_school,1542399867987,16,white,male,Mandarin Chinese,NA,9,49,NA,NA,NA,@几个@,Fri Nov 16 2018 10:25:45 GMT-0800 (Pacific Standard Time),1542392745580,118.70678333333333,NA,155,truthValueJudgement
218,1935,20,false,,graduated_high_school,1542399867987,16,black,male,Mandarin Chinese,NA,36,49,NA,NA,NA,@没有@,Fri Nov 16 2018 10:25:45 GMT-0800 (Pacific Standard Time),1542392745580,118.70678333333333,NA,156,truthValueJudgement
218,1808,20,false,,graduated_high_school,1542399867987,16,black,male,Mandarin Chinese,NA,36,49,NA,NA,NA,@没有@,Fri Nov 16 2018 10:25:45 GMT-0800 (Pacific Standard Time),1542392745580,118.70678333333333,NA,157,truthValueJudgement
218,784,20,false,,graduated_high_school,1542399867987,16,black,male,Mandarin Chinese,NA,39,49,NA,NA,NA,@没有@,Fri Nov 16 2018 10:25:45 GMT-0800 (Pacific Standard Time),1542392745580,118.70678333333333,NA,158,truthValueJudgement
218,678,20,false,,graduated_high_school,1542399867987,16,black,male,Mandarin Chinese,NA,42,49,NA,NA,NA,@没有@,Fri Nov 16 2018 10:25:45 GMT-0800 (Pacific Standard Time),1542392745580,118.70678333333333,NA,159,truthValueJudgement
218,1855,20,false,,graduated_high_school,1542399867987,16,black,male,Mandarin Chinese,NA,43,49,NA,NA,NA,@没有@,Fri Nov 16 2018 10:25:45 GMT-0800 (Pacific Standard Time),1542392745580,118.70678333333333,NA,160,truthValueJudgement
218,1624,20,false,,graduated_high_school,1542399867987,16,black,male,Mandarin Chinese,NA,41,49,NA,NA,NA,@两个@,Fri Nov 16 2018 10:25:45 GMT-0800 (Pacific Standard Time),1542392745580,118.70678333333333,NA,161,truthValueJudgement
218,871,20,false,,graduated_high_school,1542399867987,16,black,male,Mandarin Chinese,NA,41,49,NA,NA,NA,@两个@,Fri Nov 16 2018 10:25:45 GMT-0800 (Pacific Standard Time),1542392745580,118.70678333333333,NA,162,truthValueJudgement
218,766,20,false,,graduated_high_school,1542399867987,16,black,male,Mandarin Chinese,NA,29,49,NA,NA,NA,@两个@,Fri Nov 16 2018 10:25:45 GMT-0800 (Pacific Standard Time),1542392745580,118.70678333333333,NA,163,truthValueJudgement
218,695,20,false,,graduated_high_school,1542399867987,16,black,male,Mandarin Chinese,NA,30,49,NA,NA,NA,@两个@,Fri Nov 16 2018 10:25:45 GMT-0800 (Pacific Standard Time),1542392745580,118.70678333333333,NA,164,truthValueJudgement
218,848,20,false,,graduated_high_school,1542399867987,16,black,male,Mandarin Chinese,NA,36,49,NA,NA,NA,@两个@,Fri Nov 16 2018 10:25:45 GMT-0800 (Pacific Standard Time),1542392745580,118.70678333333333,NA,165,truthValueJudgement
218,2278,20,false,,graduated_high_school,1542399867987,16,black,male,Mandarin Chinese,NA,0,10,NA,NA,NA,@九个@,Fri Nov 16 2018 10:25:45 GMT-0800 (Pacific Standard Time),1542392745580,118.70678333333333,NA,166,truthValueJudgement
218,1254,20,false,,graduated_high_school,1542399867987,16,black,male,Mandarin Chinese,NA,5,10,NA,NA,NA,@九个@,Fri Nov 16 2018 10:25:45 GMT-0800 (Pacific Standard Time),1542392745580,118.70678333333333,NA,167,truthValueJudgement
218,2422,20,true,,graduated_high_school,1542399867987,16,black,male,Mandarin Chinese,NA,9,10,NA,NA,NA,@九个@,Fri Nov 16 2018 10:25:45 GMT-0800 (Pacific Standard Time),1542392745580,118.70678333333333,NA,168,truthValueJudgement
218,1422,20,false,,graduated_high_school,1542399867987,16,black,male,Mandarin Chinese,NA,2,10,NA,NA,NA,@九个@,Fri Nov 16 2018 10:25:45 GMT-0800 (Pacific Standard Time),1542392745580,118.70678333333333,NA,169,truthValueJudgement
218,1151,20,false,,graduated_high_school,1542399867987,16,black,male,Mandarin Chinese,NA,0,10,NA,NA,NA,@九个@,Fri Nov 16 2018 10:25:45 GMT-0800 (Pacific Standard Time),1542392745580,118.70678333333333,NA,170,truthValueJudgement
218,1821,20,false,,graduated_high_school,1542399867987,16,black,male,Mandarin Chinese,NA,0,10,NA,NA,NA,@很多@,Fri Nov 16 2018 10:25:45 GMT-0800 (Pacific Standard Time),1542392745580,118.70678333333333,NA,171,truthValueJudgement
218,893,20,false,,graduated_high_school,1542399867987,16,black,male,Mandarin Chinese,NA,4,10,NA,NA,NA,@很多@,Fri Nov 16 2018 10:25:45 GMT-0800 (Pacific Standard Time),1542392745580,118.70678333333333,NA,172,truthValueJudgement
218,670,20,false,,graduated_high_school,1542399867987,16,black,male,Mandarin Chinese,NA,0,10,NA,NA,NA,@很多@,Fri Nov 16 2018 10:25:45 GMT-0800 (Pacific Standard Time),1542392745580,118.70678333333333,NA,173,truthValueJudgement
218,670,20,false,,graduated_high_school,1542399867987,16,black,male,Mandarin Chinese,NA,0,10,NA,NA,NA,@很多@,Fri Nov 16 2018 10:25:45 GMT-0800 (Pacific Standard Time),1542392745580,118.70678333333333,NA,174,truthValueJudgement
218,735,20,false,,graduated_high_school,1542399867987,16,black,male,Mandarin Chinese,NA,3,10,NA,NA,NA,@很多@,Fri Nov 16 2018 10:25:45 GMT-0800 (Pacific Standard Time),1542392745580,118.70678333333333,NA,175,truthValueJudgement
218,1692,20,true,,graduated_high_school,1542399867987,16,black,male,Mandarin Chinese,NA,26,49,NA,NA,NA,@半对半@,Fri Nov 16 2018 10:25:45 GMT-0800 (Pacific Standard Time),1542392745580,118.70678333333333,NA,176,truthValueJudgement
218,844,20,false,,graduated_high_school,1542399867987,16,black,male,Mandarin Chinese,NA,4,49,NA,NA,NA,@半对半@,Fri Nov 16 2018 10:25:45 GMT-0800 (Pacific Standard Time),1542392745580,118.70678333333333,NA,177,truthValueJudgement
218,832,20,true,,graduated_high_school,1542399867987,16,black,male,Mandarin Chinese,NA,27,49,NA,NA,NA,@半对半@,Fri Nov 16 2018 10:25:45 GMT-0800 (Pacific Standard Time),1542392745580,118.70678333333333,NA,178,truthValueJudgement
218,788,20,false,,graduated_high_school,1542399867987,16,black,male,Mandarin Chinese,NA,46,49,NA,NA,NA,@半对半@,Fri Nov 16 2018 10:25:45 GMT-0800 (Pacific Standard Time),1542392745580,118.70678333333333,NA,179,truthValueJudgement
218,792,20,true,,graduated_high_school,1542399867987,16,black,male,Mandarin Chinese,NA,23,49,NA,NA,NA,@半对半@,Fri Nov 16 2018 10:25:45 GMT-0800 (Pacific Standard Time),1542392745580,118.70678333333333,NA,180,truthValueJudgement
218,9884,20,NA,,graduated_high_school,1542399867987,16,NA,male,Mandarin Chinese,NA,NA,NA,NA,NA,NA,NA,Fri Nov 16 2018 10:25:45 GMT-0800 (Pacific Standard Time),1542392745580,118.70678333333333,one of,1,translateInput
218,4214,20,NA,,graduated_high_school,1542399867987,16,NA,male,Mandarin Chinese,NA,NA,NA,NA,NA,NA,NA,Fri Nov 16 2018 10:25:45 GMT-0800 (Pacific Standard Time),1542392745580,118.70678333333333,only one of,2,translateInput
218,2064,20,NA,,graduated_high_school,1542399867987,16,NA,male,Mandarin Chinese,NA,NA,NA,NA,NA,NA,NA,Fri Nov 16 2018 10:25:45 GMT-0800 (Pacific Standard Time),1542392745580,118.70678333333333,one,3,translateInput
218,2263,20,NA,,graduated_high_school,1542399867987,16,NA,male,Mandarin Chinese,NA,NA,NA,NA,NA,NA,NA,Fri Nov 16 2018 10:25:45 GMT-0800 (Pacific Standard Time),1542392745580,118.70678333333333,many,4,translateInput
218,4684,20,NA,,graduated_high_school,1542399867987,16,NA,male,Mandarin Chinese,NA,NA,NA,NA,NA,NA,NA,Fri Nov 16 2018 10:25:45 GMT-0800 (Pacific Standard Time),1542392745580,118.70678333333333,all,5,translateInput
218,3420,20,NA,,graduated_high_school,1542399867987,16,NA,male,Mandarin Chinese,NA,NA,NA,NA,NA,NA,NA,Fri Nov 16 2018 10:25:45 GMT-0800 (Pacific Standard Time),1542392745580,118.70678333333333,2 blacks,6,translateInput
218,6328,20,NA,,graduated_high_school,1542399867987,16,NA,male,Mandarin Chinese,NA,NA,NA,NA,NA,NA,NA,Fri Nov 16 2018 10:25:45 GMT-0800 (Pacific Standard Time),1542392745580,118.70678333333333,fifty percent,7,translateInput
218,2216,20,NA,,graduated_high_school,1542399867987,16,NA,male,Mandarin Chinese,NA,NA,NA,NA,NA,NA,NA,Fri Nov 16 2018 10:25:45 GMT-0800 (Pacific Standard Time),1542392745580,118.70678333333333,half,8,translateInput
218,3793,20,NA,,graduated_high_school,1542399867987,16,NA,male,Mandarin Chinese,NA,NA,NA,NA,NA,NA,NA,Fri Nov 16 2018 10:25:45 GMT-0800 (Pacific Standard Time),1542392745580,118.70678333333333,majority black,9,translateInput
218,3433,20,NA,,graduated_high_school,1542399867987,16,NA,male,Mandarin Chinese,NA,NA,NA,NA,NA,NA,NA,Fri Nov 16 2018 10:25:45 GMT-0800 (Pacific Standard Time),1542392745580,118.70678333333333,eight blacks,10,translateInput
218,2677,20,NA,,graduated_high_school,1542399867987,16,NA,male,Mandarin Chinese,NA,NA,NA,NA,NA,NA,NA,Fri Nov 16 2018 10:25:45 GMT-0800 (Pacific Standard Time),1542392745580,118.70678333333333,three whites,11,translateInput
218,2723,20,NA,,graduated_high_school,1542399867987,16,NA,male,Mandarin Chinese,NA,NA,NA,NA,NA,NA,NA,Fri Nov 16 2018 10:25:45 GMT-0800 (Pacific Standard Time),1542392745580,118.70678333333333,no whites,12,translateInput
218,2145,20,NA,,graduated_high_school,1542399867987,16,NA,male,Mandarin Chinese,NA,NA,NA,NA,NA,NA,NA,Fri Nov 16 2018 10:25:45 GMT-0800 (Pacific Standard Time),1542392745580,118.70678333333333,zero,13,translateInput
218,5338,20,NA,,graduated_high_school,1542399867987,16,NA,male,Mandarin Chinese,NA,NA,NA,NA,NA,NA,NA,Fri Nov 16 2018 10:25:45 GMT-0800 (Pacific Standard Time),1542392745580,118.70678333333333,majority,14,translateInput
218,3118,20,NA,,graduated_high_school,1542399867987,16,NA,male,Mandarin Chinese,NA,NA,NA,NA,NA,NA,NA,Fri Nov 16 2018 10:25:45 GMT-0800 (Pacific Standard Time),1542392745580,118.70678333333333,many blacks,15,translateInput
218,2583,20,NA,,graduated_high_school,1542399867987,16,NA,male,Mandarin Chinese,NA,NA,NA,NA,NA,NA,NA,Fri Nov 16 2018 10:25:45 GMT-0800 (Pacific Standard Time),1542392745580,118.70678333333333,six whites,16,translateInput
218,3201,20,NA,,graduated_high_school,1542399867987,16,NA,male,Mandarin Chinese,NA,NA,NA,NA,NA,NA,NA,Fri Nov 16 2018 10:25:45 GMT-0800 (Pacific Standard Time),1542392745580,118.70678333333333,four blacks,17,translateInput
218,3067,20,NA,,graduated_high_school,1542399867987,16,NA,male,Mandarin Chinese,NA,NA,NA,NA,NA,NA,NA,Fri Nov 16 2018 10:25:45 GMT-0800 (Pacific Standard Time),1542392745580,118.70678333333333,some blacks,18,translateInput
218,2462,20,NA,,graduated_high_school,1542399867987,16,NA,male,Mandarin Chinese,NA,NA,NA,NA,NA,NA,NA,Fri Nov 16 2018 10:25:45 GMT-0800 (Pacific Standard Time),1542392745580,118.70678333333333,majority,19,translateInput
218,3405,20,NA,,graduated_high_school,1542399867987,16,NA,male,Mandarin Chinese,NA,NA,NA,NA,NA,NA,NA,Fri Nov 16 2018 10:25:45 GMT-0800 (Pacific Standard Time),1542392745580,118.70678333333333,half and half,20,translateInput
218,2735,20,NA,,graduated_high_school,1542399867987,16,NA,male,Mandarin Chinese,NA,NA,NA,NA,NA,NA,NA,Fri Nov 16 2018 10:25:45 GMT-0800 (Pacific Standard Time),1542392745580,118.70678333333333,a lot,21,translateInput
218,3546,20,NA,,graduated_high_school,1542399867987,16,NA,male,Mandarin Chinese,NA,NA,NA,NA,NA,NA,NA,Fri Nov 16 2018 10:25:45 GMT-0800 (Pacific Standard Time),1542392745580,118.70678333333333,all black,22,translateInput
218,4085,20,NA,,graduated_high_school,1542399867987,16,NA,male,Mandarin Chinese,NA,NA,NA,NA,NA,NA,NA,Fri Nov 16 2018 10:25:45 GMT-0800 (Pacific Standard Time),1542392745580,118.70678333333333,ten blacks,23,translateInput
218,2713,20,NA,,graduated_high_school,1542399867987,16,NA,male,Mandarin Chinese,NA,NA,NA,NA,NA,NA,NA,Fri Nov 16 2018 10:25:45 GMT-0800 (Pacific Standard Time),1542392745580,118.70678333333333,many blacks,24,translateInput
218,2424,20,NA,,graduated_high_school,1542399867987,16,NA,male,Mandarin Chinese,NA,NA,NA,NA,NA,NA,NA,Fri Nov 16 2018 10:25:45 GMT-0800 (Pacific Standard Time),1542392745580,118.70678333333333,five,25,translateInput
218,2645,20,NA,,graduated_high_school,1542399867987,16,NA,male,Mandarin Chinese,NA,NA,NA,NA,NA,NA,NA,Fri Nov 16 2018 10:25:45 GMT-0800 (Pacific Standard Time),1542392745580,118.70678333333333,half and half,26,translateInput
218,2723,20,NA,,graduated_high_school,1542399867987,16,NA,male,Mandarin Chinese,NA,NA,NA,NA,NA,NA,NA,Fri Nov 16 2018 10:25:45 GMT-0800 (Pacific Standard Time),1542392745580,118.70678333333333,majority,27,translateInput
218,2016,20,NA,,graduated_high_school,1542399867987,16,NA,male,Mandarin Chinese,NA,NA,NA,NA,NA,NA,NA,Fri Nov 16 2018 10:25:45 GMT-0800 (Pacific Standard Time),1542392745580,118.70678333333333,seven,28,translateInput
218,14149,20,NA,,graduated_high_school,1542399867987,16,NA,male,Mandarin Chinese,NA,NA,NA,NA,NA,NA,NA,Fri Nov 16 2018 10:25:45 GMT-0800 (Pacific Standard Time),1542392745580,118.70678333333333,all except one,29,translateInput
218,7778,20,NA,,graduated_high_school,1542399867987,16,NA,male,Mandarin Chinese,NA,NA,NA,NA,NA,NA,NA,Fri Nov 16 2018 10:25:45 GMT-0800 (Pacific Standard Time),1542392745580,118.70678333333333,small amount,30,translateInput
218,3078,20,NA,,graduated_high_school,1542399867987,16,NA,male,Mandarin Chinese,NA,NA,NA,NA,NA,NA,NA,Fri Nov 16 2018 10:25:45 GMT-0800 (Pacific Standard Time),1542392745580,118.70678333333333,several,31,translateInput
218,2574,20,NA,,graduated_high_school,1542399867987,16,NA,male,Mandarin Chinese,NA,NA,NA,NA,NA,NA,NA,Fri Nov 16 2018 10:25:45 GMT-0800 (Pacific Standard Time),1542392745580,118.70678333333333,none,32,translateInput
218,1762,20,NA,,graduated_high_school,1542399867987,16,NA,male,Mandarin Chinese,NA,NA,NA,NA,NA,NA,NA,Fri Nov 16 2018 10:25:45 GMT-0800 (Pacific Standard Time),1542392745580,118.70678333333333,two,33,translateInput
218,1929,20,NA,,graduated_high_school,1542399867987,16,NA,male,Mandarin Chinese,NA,NA,NA,NA,NA,NA,NA,Fri Nov 16 2018 10:25:45 GMT-0800 (Pacific Standard Time),1542392745580,118.70678333333333,nine,34,translateInput
218,2554,20,NA,,graduated_high_school,1542399867987,16,NA,male,Mandarin Chinese,NA,NA,NA,NA,NA,NA,NA,Fri Nov 16 2018 10:25:45 GMT-0800 (Pacific Standard Time),1542392745580,118.70678333333333,many,35,translateInput
218,2543,20,NA,,graduated_high_school,1542399867987,16,NA,male,Mandarin Chinese,NA,NA,NA,NA,NA,NA,NA,Fri Nov 16 2018 10:25:45 GMT-0800 (Pacific Standard Time),1542392745580,118.70678333333333,half and half,36,translateInput
217,NA,,NA,This was a test run by MF.,,1542291605135,16,NA,,,German,NA,NA,NA,NA,NA,NA,Thu Nov 15 2018 15:17:00 GMT+0100 (Central European Standard Time),1542291420768,3.072783333333333,NA,1,nativeLang
217,9541,,NA,This was a test run by MF.,,1542291605135,16,white,,,NA,4,49,@test@,,,NA,Thu Nov 15 2018 15:17:00 GMT+0100 (Central European Standard Time),1542291420768,3.072783333333333,NA,1,describePicture
217,2819,,NA,This was a test run by MF.,,1542291605135,16,white,,,NA,0,10,@test@,,,NA,Thu Nov 15 2018 15:17:00 GMT+0100 (Central European Standard Time),1542291420768,3.072783333333333,NA,2,describePicture
217,2217,,NA,This was a test run by MF.,,1542291605135,16,white,,,NA,8,10,@test@,,,NA,Thu Nov 15 2018 15:17:00 GMT+0100 (Central European Standard Time),1542291420768,3.072783333333333,NA,3,describePicture
217,3592,,NA,This was a test run by MF.,,1542291605135,16,black,,,NA,6,10,@test@,,,NA,Thu Nov 15 2018 15:17:00 GMT+0100 (Central European Standard Time),1542291420768,3.072783333333333,NA,4,describePicture
217,1193,,NA,This was a test run by MF.,,1542291605135,16,black,,,NA,46,49,@test@,,,NA,Thu Nov 15 2018 15:17:00 GMT+0100 (Central European Standard Time),1542291420768,3.072783333333333,NA,5,describePicture
217,1530,,NA,This was a test run by MF.,,1542291605135,16,black,,,NA,36,49,,,@test@,NA,Thu Nov 15 2018 15:17:00 GMT+0100 (Central European Standard Time),1542291420768,3.072783333333333,NA,6,describePicture
217,957,,NA,This was a test run by MF.,,1542291605135,16,white,,,NA,0,49,,,@test@,NA,Thu Nov 15 2018 15:17:00 GMT+0100 (Central European Standard Time),1542291420768,3.072783333333333,NA,7,describePicture
217,978,,NA,This was a test run by MF.,,1542291605135,16,black,,,NA,4,10,,,@test@,NA,Thu Nov 15 2018 15:17:00 GMT+0100 (Central European Standard Time),1542291420768,3.072783333333333,NA,8,describePicture
217,1045,,NA,This was a test run by MF.,,1542291605135,16,black,,,NA,12,49,,,@test@,NA,Thu Nov 15 2018 15:17:00 GMT+0100 (Central European Standard Time),1542291420768,3.072783333333333,NA,9,describePicture
217,1013,,NA,This was a test run by MF.,,1542291605135,16,white,,,NA,25,49,,,@test@,NA,Thu Nov 15 2018 15:17:00 GMT+0100 (Central European Standard Time),1542291420768,3.072783333333333,NA,10,describePicture
217,1024,,NA,This was a test run by MF.,,1542291605135,16,black,,,NA,21,49,,,@test@,NA,Thu Nov 15 2018 15:17:00 GMT+0100 (Central European Standard Time),1542291420768,3.072783333333333,NA,11,describePicture
217,1035,,NA,This was a test run by MF.,,1542291605135,16,black,,,NA,31,49,,,@test@,NA,Thu Nov 15 2018 15:17:00 GMT+0100 (Central European Standard Time),1542291420768,3.072783333333333,NA,12,describePicture
217,945,,NA,This was a test run by MF.,,1542291605135,16,white,,,NA,5,10,,,@test@,NA,Thu Nov 15 2018 15:17:00 GMT+0100 (Central European Standard Time),1542291420768,3.072783333333333,NA,13,describePicture
217,1598,,NA,This was a test run by MF.,,1542291605135,16,black,,,NA,41,49,,,@test@,NA,Thu Nov 15 2018 15:17:00 GMT+0100 (Central European Standard Time),1542291420768,3.072783333333333,NA,14,describePicture
217,1271,,NA,This was a test run by MF.,,1542291605135,16,white,,,NA,9,10,,@test@,,NA,Thu Nov 15 2018 15:17:00 GMT+0100 (Central European Standard Time),1542291420768,3.072783333333333,NA,15,describePicture
217,1024,,NA,This was a test run by MF.,,1542291605135,16,white,,,NA,7,10,,,@test@,NA,Thu Nov 15 2018 15:17:00 GMT+0100 (Central European Standard Time),1542291420768,3.072783333333333,NA,16,describePicture
217,1226,,NA,This was a test run by MF.,,1542291605135,16,black,,,NA,2,10,,,@test@,NA,Thu Nov 15 2018 15:17:00 GMT+0100 (Central European Standard Time),1542291420768,3.072783333333333,NA,17,describePicture
217,1923,,NA,This was a test run by MF.,,1542291605135,16,black,,,NA,16,49,,,@test@,NA,Thu Nov 15 2018 15:17:00 GMT+0100 (Central European Standard Time),1542291420768,3.072783333333333,NA,18,describePicture
217,1024,,NA,This was a test run by MF.,,1542291605135,16,black,,,NA,19,49,,,@test@,NA,Thu Nov 15 2018 15:17:00 GMT+0100 (Central European Standard Time),1542291420768,3.072783333333333,NA,19,describePicture
217,1317,,NA,This was a test run by MF.,,1542291605135,16,black,,,NA,37,49,,,@test@,NA,Thu Nov 15 2018 15:17:00 GMT+0100 (Central European Standard Time),1542291420768,3.072783333333333,NA,20,describePicture
217,1440,,NA,This was a test run by MF.,,1542291605135,16,white,,,NA,6,49,,@test@,,NA,Thu Nov 15 2018 15:17:00 GMT+0100 (Central European Standard Time),1542291420768,3.072783333333333,NA,21,describePicture
217,1732,,NA,This was a test run by MF.,,1542291605135,16,black,,,NA,49,49,@test@,,,NA,Thu Nov 15 2018 15:17:00 GMT+0100 (Central European Standard Time),1542291420768,3.072783333333333,NA,22,describePicture
217,1283,,NA,This was a test run by MF.,,1542291605135,16,white,,,NA,3,10,,@test@,,NA,Thu Nov 15 2018 15:17:00 GMT+0100 (Central European Standard Time),1542291420768,3.072783333333333,NA,23,describePicture
217,1080,,NA,This was a test run by MF.,,1542291605135,16,white,,,NA,1,10,,,@test@,NA,Thu Nov 15 2018 15:17:00 GMT+0100 (Central European Standard Time),1542291420768,3.072783333333333,NA,24,describePicture
217,1057,,NA,This was a test run by MF.,,1542291605135,16,white,,,NA,10,10,,@test@,,NA,Thu Nov 15 2018 15:17:00 GMT+0100 (Central European Standard Time),1542291420768,3.072783333333333,NA,25,describePicture
217,6283,,true,This was a test run by MF.,,1542291605135,16,white,,,NA,4,49,NA,NA,NA,@test@,Thu Nov 15 2018 15:17:00 GMT+0100 (Central European Standard Time),1542291420768,3.072783333333333,NA,1,truthValueJudgement
217,4972,,false,This was a test run by MF.,,1542291605135,16,white,,,NA,19,49,NA,NA,NA,@test@,Thu Nov 15 2018 15:17:00 GMT+0100 (Central European Standard Time),1542291420768,3.072783333333333,NA,2,truthValueJudgement
217,873,,true,This was a test run by MF.,,1542291605135,16,white,,,NA,40,49,NA,NA,NA,@test@,Thu Nov 15 2018 15:17:00 GMT+0100 (Central European Standard Time),1542291420768,3.072783333333333,NA,3,truthValueJudgement
217,754,,false,This was a test run by MF.,,1542291605135,16,white,,,NA,11,49,NA,NA,NA,@test@,Thu Nov 15 2018 15:17:00 GMT+0100 (Central European Standard Time),1542291420768,3.072783333333333,NA,4,truthValueJudgement
217,717,,true,This was a test run by MF.,,1542291605135,16,white,,,NA,49,49,NA,NA,NA,@test@,Thu Nov 15 2018 15:17:00 GMT+0100 (Central European Standard Time),1542291420768,3.072783333333333,NA,5,truthValueJudgement
217,807,,false,This was a test run by MF.,,1542291605135,16,white,,,NA,7,10,NA,NA,NA,@test@,Thu Nov 15 2018 15:17:00 GMT+0100 (Central European Standard Time),1542291420768,3.072783333333333,NA,6,truthValueJudgement
217,766,,true,This was a test run by MF.,,1542291605135,16,white,,,NA,7,10,NA,NA,NA,@test@,Thu Nov 15 2018 15:17:00 GMT+0100 (Central European Standard Time),1542291420768,3.072783333333333,NA,7,truthValueJudgement
217,765,,false,This was a test run by MF.,,1542291605135,16,white,,,NA,0,10,NA,NA,NA,@test@,Thu Nov 15 2018 15:17:00 GMT+0100 (Central European Standard Time),1542291420768,3.072783333333333,NA,8,truthValueJudgement
217,760,,true,This was a test run by MF.,,1542291605135,16,white,,,NA,5,10,NA,NA,NA,@test@,Thu Nov 15 2018 15:17:00 GMT+0100 (Central European Standard Time),1542291420768,3.072783333333333,NA,9,truthValueJudgement
217,710,,false,This was a test run by MF.,,1542291605135,16,white,,,NA,9,10,NA,NA,NA,@test@,Thu Nov 15 2018 15:17:00 GMT+0100 (Central European Standard Time),1542291420768,3.072783333333333,NA,10,truthValueJudgement
217,8955,,NA,This was a test run by MF.,,1542291605135,16,NA,,,NA,NA,NA,NA,NA,NA,NA,Thu Nov 15 2018 15:17:00 GMT+0100 (Central European Standard Time),1542291420768,3.072783333333333,This would be: TEST,1,translateInput
217,8403,,NA,This was a test run by MF.,,1542291605135,16,NA,,,NA,NA,NA,NA,NA,NA,NA,Thu Nov 15 2018 15:17:00 GMT+0100 (Central European Standard Time),1542291420768,3.072783333333333,This would be a TEST,2,translateInput
